loggingTime(txt),accelerometerTimestamp_sinceReboot(s),accelerometerAccelerationX(G),accelerometerAccelerationY(G),accelerometerAccelerationZ(G),motionTimestamp_sinceReboot(s),motionYaw(rad),motionRoll(rad),motionPitch(rad),motionRotationRateX(rad/s),motionRotationRateY(rad/s),motionRotationRateZ(rad/s),motionUserAccelerationX(G),motionUserAccelerationY(G),motionUserAccelerationZ(G),motionAttitudeReferenceFrame(txt),motionQuaternionX(R),motionQuaternionY(R),motionQuaternionZ(R),motionQuaternionW(R),motionGravityX(G),motionGravityY(G),motionGravityZ(G),activityTimestamp_sinceReboot(s),activity(txt),activityActivityConfidence(Z),activityActivityStartDate(txt),altimeterTimestamp_sinceReboot(s),altimeterReset(bool),altimeterRelativeAltitude(m),altimeterPressure(kPa)
2020-03-15 14:23:39.606 +0100,1947.598011375,-0.541412353515625,0.5325469970703125,-0.71368408203125,1947.587963375,-0.3754922117017669,-0.6673629590365542,-0.5465500915263424,-0.06931254267692566,-0.06200218945741653,0.05349623411893845,-0.0002758502960205078,0.02341729402542114,-0.03993904590606689,XArbitraryZVertical,-0.3093815072100451,-0.2622335561711336,-0.08296545363451141,0.9102930063421238,-0.528754711151123,0.5197429656982422,-0.6710332632064819,1918.933364875,unknown,2,2020-03-15 14:23:10.864 +0100,605971416.766933,0,-6.71,101.3038
2020-03-15 14:23:39.609 +0100,1947.613084375,-0.5069580078125,0.5092010498046875,-0.6921844482421875,1947.603035375,-0.374589741274398,-0.6671067174758759,-0.5472421404929446,0.03720031678676605,-0.02639945596456528,0.05705821514129639,-0.01304531097412109,0.01220607757568359,-0.04280233383178711,XArbitraryZVertical,-0.3095561538324402,-0.2621678179213452,-0.08247070386030167,0.9102975716996747,-0.5283600687980652,0.5203341245651245,-0.6708860397338867,1918.933364875,unknown,2,2020-03-15 14:23:10.864 +0100,605971416.766933,0,-6.71,101.3038
2020-03-15 14:23:39.609 +0100,1947.628156375,-0.5380401611328125,0.4971923828125,-0.6776123046875,1947.618108375,-0.3727347632640601,-0.6662763534658552,-0.5470271594747977,0.07712734490633011,-0.01936154998838902,0.07889200747013092,0.01530563831329346,-0.007126331329345703,-0.02630001306533813,XArbitraryZVertical,-0.3091846195386958,-0.2621042821627029,-0.08179312622177946,0.9105031835484366,-0.5278719067573547,0.5201504826545715,-0.6714124083518982,1918.933364875,unknown,2,2020-03-15 14:23:10.864 +0100,605971416.766933,0,-6.71,101.3038
2020-03-15 14:23:39.610 +0100,1947.643228375,-0.5233154296875,0.4887847900390625,-0.6668701171875,1947.633180375,-0.3708475475316898,-0.6650862989159158,-0.5460404611065605,0.08947865664958954,-0.007849770598113537,0.02895979955792427,-0.01064431667327881,-0.0221218466758728,-0.005172848701477051,XArbitraryZVertical,-0.3084556201759749,-0.26197954514997,-0.08129337030712205,0.9108310888532851,-0.5273890495300293,0.519307553768158,-0.672443687915802,1918.933364875,unknown,2,2020-03-15 14:23:10.864 +0100,605971416.766933,0,-6.71,101.3038
2020-03-15 14:23:39.611 +0100,1947.658300375,-0.49591064453125,0.4940032958984375,-0.665985107421875,1947.648252375,-0.3695366284571354,-0.6645196019602536,-0.5454172730758968,0.0453154630959034,-0.03361798450350761,0.03218382224440575,-0.009879887104034424,-0.03088182210922241,0.003711819648742676,XArbitraryZVertical,-0.3079871674920223,-0.2620025979904778,-0.08089448064184232,0.9110184682507224,-0.5272073149681091,0.5187748670578003,-0.6729970574378967,1918.933364875,unknown,2,2020-03-15 14:23:10.864 +0100,605971416.766933,0,-6.71,101.3038
2020-03-15 14:23:39.611 +0100,1947.673372375,-0.51873779296875,0.5081939697265625,-0.6723175048828125,1947.663324375,-0.3683609478791746,-0.6641785367225569,-0.5455103980835666,0.02791463583707809,-0.03279506787657738,0.05993050336837769,0.03104430437088013,-0.02485793828964233,0.007149457931518555,XArbitraryZVertical,-0.3078603049618185,-0.2620164431342756,-0.08039488810642184,0.9111016173644796,-0.5269479751586914,0.5188544988632202,-0.6731388568878174,1918.933364875,unknown,2,2020-03-15 14:23:10.864 +0100,605971416.766933,0,-6.71,101.3038
2020-03-15 14:23:39.621 +0100,1947.688444375,-0.51751708984375,0.4990997314453125,-0.662200927734375,1947.678396375,-0.3672546136636931,-0.664162237641536,-0.5457227624345657,0.02149495109915733,-0.04093077033758163,0.0539439469575882,0.01323461532592773,-0.01400738954544067,0.002173185348510742,XArbitraryZVertical,-0.3078080164910987,-0.2621524565082632,-0.07985567486826164,0.9111275560428829,-0.5268690586090088,0.5190359950065613,-0.6730606555938721,1918.933364875,unknown,2,2020-03-15 14:23:10.864 +0100,605971416.766933,0,-6.71,101.3038
2020-03-15 14:23:39.636 +0100,1947.703516375,-0.5078887939453125,0.5123138427734375,-0.652130126953125,1947.693468375,-0.3661837842946025,-0.6641417908722936,-0.5459994304414861,-0.01038230489939451,-0.066191166639328,0.07285408675670624,0.009256601333618164,-0.02017951011657715,0.01075315475463867,XArbitraryZVertical,-0.3077884062584987,-0.262273022896108,-0.07932186178710555,0.91114614656472,-0.526766836643219,0.5192724466323853,-0.6729583144187927,1918.933364875,unknown,2,2020-03-15 14:23:10.864 +0100,605971416.766933,0,-6.71,101.3038
2020-03-15 14:23:39.651 +0100,1947.718588375,-0.534576416015625,0.5150604248046875,-0.6440887451171875,1947.708540375,-0.3651079362691418,-0.6645863655360024,-0.5472116039304417,-0.05629554390907288,-0.0840003713965416,0.1218112483620644,0.0158962607383728,-0.01411974430084229,0.01598906517028809,XArbitraryZVertical,-0.3081976293405195,-0.2624884683230192,-0.07854804227609105,0.911012741750623,-0.5266773104667664,0.5203080177307129,-0.6722280383110046,1918.933364875,unknown,2,2020-03-15 14:23:10.864 +0100,605971416.766933,0,-6.71,101.3038
2020-03-15 14:23:39.666 +0100,1947.733661375,-0.542236328125,0.5277557373046875,-0.6544036865234375,1947.723612375,-0.3644983044379088,-0.6653780953222844,-0.5484029424277641,-0.03699348494410515,-0.04838166013360023,0.05610094219446182,-0.007743299007415771,-0.006271302700042725,0.02722978591918945,XArbitraryZVertical,-0.3086720819320202,-0.2627930438865698,-0.07793657979785747,0.9108167650535346,-0.5268263220787048,0.5213250517845154,-0.6713227033615112,1918.933364875,unknown,2,2020-03-15 14:23:10.864 +0100,605971416.766933,0,-6.71,101.3038
2020-03-15 14:23:39.681 +0100,1947.748733375,-0.5212554931640625,0.5298614501953125,-0.659454345703125,1947.738685375,-0.3634558616405656,-0.6653951225086053,-0.5489678533067726,0.0271235816180706,-0.03394417464733124,0.08669842779636383,-0.03367054462432861,0.002707123756408691,0.01687246561050415,XArbitraryZVertical,-0.3087839370839514,-0.2628906182162422,-0.07735880618425744,0.910800015021181,-0.5266558527946472,0.5218070149421692,-0.6710820198059082,1918.933364875,unknown,2,2020-03-15 14:23:10.864 +0100,605971416.766933,0,-6.71,101.3038
2020-03-15 14:23:39.696 +0100,1947.763805375,-0.5269622802734375,0.5214080810546875,-0.6529388427734375,1947.753757375,-0.3620192955470606,-0.6649158338438098,-0.5490543327737183,0.03100005909800529,-0.02778938971459866,0.05320688337087631,0.005057692527770996,0.007973909378051758,0.01184022426605225,XArbitraryZVertical,-0.3086146630486536,-0.26288321506627,-0.07676316312370494,0.9109098698062401,-0.5263063311576843,0.5218808054924011,-0.6712988018989563,1918.933364875,unknown,2,2020-03-15 14:23:10.864 +0100,605971416.766933,0,-6.71,101.3038
2020-03-15 14:23:39.711 +0100,1947.778877375,-0.5252685546875,0.51702880859375,-0.6561279296875,1947.768829375,-0.3609411919471804,-0.6647123562549074,-0.5491841767612382,0.02040973305702209,-0.01972906664013863,0.05613929033279419,0.001095235347747803,0.001622319221496582,0.01540344953536987,XArbitraryZVertical,-0.3085222083002139,-0.2629405970790278,-0.07628047100311003,0.9109652333104726,-0.5261279344558716,0.5219915509223938,-0.6713525652885437,1918.933364875,unknown,2,2020-03-15 14:23:10.864 +0100,605971416.766933,0,-6.71,101.3038
2020-03-15 14:23:39.726 +0100,1947.793949375,-0.51678466796875,0.5191650390625,-0.668212890625,1947.783901375,-0.3600137980836921,-0.6644752316615845,-0.549446276042503,0.007100851275026798,-0.01506746932864189,0.05550386011600494,0.0006227493286132812,-0.005193054676055908,0.01523733139038086,XArbitraryZVertical,-0.3085064942057231,-0.2629428644867201,-0.07584812269783942,0.911005994080198,-0.5258843302726746,0.5222150683403015,-0.6713696122169495,1918.933364875,unknown,2,2020-03-15 14:23:10.864 +0100,605971416.766933,0,-6.71,101.3038
2020-03-15 14:23:39.741 +0100,1947.809021375,-0.5154876708984375,0.5207061767578125,-0.674896240234375,1947.798973375,-0.3591602251024699,-0.6642464167362141,-0.55000775770376,0.002782916650176048,-0.01545845065265894,0.06378162652254105,0.00659024715423584,-0.004420757293701172,0.007573485374450684,XArbitraryZVertical,-0.3086325238337344,-0.262900212270105,-0.07539503562892333,0.9110131643035678,-0.5255498290061951,0.5226938128471375,-0.6712588667869568,1918.933364875,unknown,2,2020-03-15 14:23:10.864 +0100,605971416.766933,0,-6.71,101.3038
2020-03-15 14:23:39.756 +0100,1947.824093375,-0.5177764892578125,0.520111083984375,-0.6737518310546875,1947.814045375,-0.3583670023312509,-0.6643557926972445,-0.5505564957204522,0.01165065448731184,-0.01360419578850269,0.07360240072011948,0.009965777397155762,-0.002462387084960938,-0.003925144672393799,XArbitraryZVertical,-0.3087735993102301,-0.2630040087815709,-0.07491955826564459,0.91097468144326,-0.525446355342865,0.5231615900993347,-0.6709755063056946,1918.933364875,unknown,2,2020-03-15 14:23:10.864 +0100,605971416.766933,0,-6.71,101.3038
2020-03-15 14:23:39.771 +0100,1947.839165375,-0.5203857421875,0.5325469970703125,-0.6776275634765625,1947.829117375,-0.3571007711678594,-0.6639962100928016,-0.5511148219881968,0.02112502232193947,-0.01941727101802826,0.07787893712520599,0.006050169467926025,-0.006386756896972656,-0.002806782722473145,XArbitraryZVertical,-0.3088392016537157,-0.2629661924453082,-0.07429935785820771,0.9110141336857629,-0.525024950504303,0.5236372947692871,-0.67093425989151,1918.933364875,unknown,2,2020-03-15 14:23:10.864 +0100,605971416.766933,0,-6.71,101.3038
2020-03-15 14:23:39.787 +0100,1947.854238375,-0.52276611328125,0.5322418212890625,-0.6735382080078125,1947.844189375,-0.3558394149654618,-0.663691014533374,-0.5517837555584038,0.006841688416898251,-0.02156750671565533,0.08045607805252075,0.004225790500640869,0.008332669734954834,-0.006813764572143555,XArbitraryZVertical,-0.3089562794858266,-0.2629388465942717,-0.07365345109219373,0.9110347260671529,-0.5246042609214783,0.5242071151733398,-0.6708183884620667,1918.933364875,unknown,2,2020-03-15 14:23:10.864 +0100,605971416.766933,0,-6.71,101.3038
2020-03-15 14:23:39.802 +0100,1947.869310375,-0.524200439453125,0.5331268310546875,-0.6801605224609375,1947.859262375,-0.3548557954716225,-0.6635688009218489,-0.5525507525863927,-0.0105714863166213,-0.02193737402558327,0.07349374890327454,0.003041625022888184,0.009403765201568604,-0.003724992275238037,XArbitraryZVertical,-0.3091598310477867,-0.2629400046684012,-0.07308850872005404,0.9110108015197744,-0.5242744088172913,0.5248600840568542,-0.6705654859542847,1918.933364875,unknown,2,2020-03-15 14:23:10.864 +0100,605971416.766933,0,-6.71,101.3038
2020-03-15 14:23:39.817 +0100,1947.884382375,-0.523223876953125,0.537506103515625,-0.685699462890625,1947.874334375,-0.3539614912110624,-0.6635028937351765,-0.5532572605151905,0.00297186803072691,-0.02265403047204018,0.06838839501142502,-0.0001912713050842285,0.007658123970031738,-0.009857356548309326,XArbitraryZVertical,-0.3093505709151874,-0.2629607085301304,-0.07256632641080663,0.9109818825397633,-0.5240017771720886,0.5254613161087036,-0.6703077554702759,1918.933364875,unknown,2,2020-03-15 14:23:10.864 +0100,605971416.766933,0,-6.71,101.3038
2020-03-15 14:23:39.832 +0100,1947.899454375,-0.531463623046875,0.5334625244140625,-0.678558349609375,1947.889406375,-0.3529081179708006,-0.6632262962534237,-0.5535694311131096,0.02893390506505966,-0.02001787163317204,0.05149873346090317,0.002192556858062744,0.0110088586807251,-0.01678448915481567,XArbitraryZVertical,-0.309339379550679,-0.262959018213369,-0.07207407717005311,0.9110252601052464,-0.5237153172492981,0.5257269144058228,-0.6703234314918518,1918.933364875,unknown,2,2020-03-15 14:23:10.864 +0100,605971416.766933,0,-6.71,101.3038
2020-03-15 14:23:39.847 +0100,1947.914526375,-0.5337066650390625,0.52459716796875,-0.6723480224609375,1947.904478375,-0.3518743742364974,-0.6629023290412834,-0.553635937424041,0.02093776315450668,-0.02143680304288864,0.04594390839338303,-0.00797957181930542,0.007671654224395752,-0.008097469806671143,XArbitraryZVertical,-0.3092210690840493,-0.2629630820129574,-0.07164152117994649,0.911098401273716,-0.5234766006469727,0.5257834792137146,-0.6704654693603516,1918.933364875,unknown,2,2020-03-15 14:23:10.864 +0100,605971416.766933,0,-6.71,101.3038
2020-03-15 14:23:39.862 +0100,1947.929598375,-0.5365142822265625,0.5176239013671875,-0.669525146484375,1947.919550375,-0.3511683341283506,-0.6629283312056401,-0.5539711447728339,-0.00925228837877512,-0.03580334410071373,0.04313727468252182,-0.009352385997772217,0.001359283924102783,-0.002985775470733643,XArbitraryZVertical,-0.3092766440697514,-0.2630427625890851,-0.07125663384009448,0.9110867105439376,-0.5233855843544006,0.5260685682296753,-0.6703129410743713,1918.933364875,unknown,2,2020-03-15 14:23:10.864 +0100,605971416.766933,0,-6.71,101.3038
2020-03-15 14:23:39.877 +0100,1947.944670375,-0.5340728759765625,0.5186614990234375,-0.677581787109375,1947.934622375,-0.3507279344687429,-0.6632390860923925,-0.5546327271634789,-0.02089526690542698,-0.0420416072010994,0.04304669052362442,-0.01312738656997681,-0.009014725685119629,0.0003459453582763672,XArbitraryZVertical,-0.3095208447831029,-0.2631709240758263,-0.07089102945809914,0.910995243604479,-0.5233794450759888,0.5266311168670654,-0.6698758006095886,1918.933364875,unknown,2,2020-03-15 14:23:10.864 +0100,605971416.766933,0,-6.71,101.3038
2020-03-15 14:23:39.892 +0100,1947.959742375,-0.53369140625,0.5175018310546875,-0.67230224609375,1947.949694375,-0.3502063476671727,-0.6635275405946828,-0.5551485949136359,0.005028494633734226,-0.03352690488100052,0.04218665510416031,-0.01047700643539429,-0.007652640342712402,-0.0051155686378479,XArbitraryZVertical,-0.3096893234220603,-0.2633195042001958,-0.07051761769526364,0.9109240630111218,-0.5234052538871765,0.5270695686340332,-0.6695107221603394,1918.933364875,unknown,2,2020-03-15 14:23:10.864 +0100,605971416.766933,0,-6.71,101.3038
2020-03-15 14:23:39.907 +0100,1947.974815375,-0.53472900390625,0.5172271728515625,-0.6755523681640625,1947.964767375,-0.3493090560088634,-0.6634769491481775,-0.555310436686224,0.03696884959936142,-0.03405341133475304,0.04450893402099609,-0.01036494970321655,-0.009712934494018555,-0.002837061882019043,XArbitraryZVertical,-0.3096406042764868,-0.2634154817876627,-0.07008814868016916,0.9109459712283197,-0.5233188271522522,0.5272071361541748,-0.669469952583313,1918.933364875,unknown,2,2020-03-15 14:23:10.864 +0100,605971416.766933,0,-6.71,101.3038
2020-03-15 14:23:39.922 +0100,1947.989887375,-0.5307464599609375,0.5251922607421875,-0.6731719970703125,1947.979839375,-0.3482639135560774,-0.6633955473032735,-0.5553143653396533,0.03275447338819504,-0.03214916214346886,0.04525721445679665,-0.01261794567108154,-0.01270699501037598,-0.004047274589538574,XArbitraryZVertical,-0.3095017787120687,-0.2635396872301815,-0.06962401728338519,0.9109928854455688,-0.5232630968093872,0.5272104740142822,-0.6695109605789185,1918.933364875,unknown,2,2020-03-15 14:23:10.864 +0100,605971416.766933,0,-6.71,101.3038
2020-03-15 14:23:39.940 +0100,1948.004959375,-0.5334320068359375,0.52667236328125,-0.6701812744140625,1947.994911375,-0.3473847520921932,-0.6634974628767086,-0.5553869184605655,0.01973629556596279,-0.03726817294955254,0.04647460952401161,-0.007431089878082275,-0.00208747386932373,-0.003749310970306396,XArbitraryZVertical,-0.3094213541617262,-0.2637132446090737,-0.06919497481375081,0.9110026796416735,-0.523307740688324,0.52727210521698,-0.6694275140762329,1918.933364875,unknown,2,2020-03-15 14:23:10.864 +0100,605971416.766933,0,-6.71,101.3038
2020-03-15 14:23:39.952 +0100,1948.020031375,-0.523101806640625,0.5322723388671875,-0.6764068603515625,1948.009983375,-0.3467130733608064,-0.663785730404801,-0.555584667976639,0.008523168973624706,-0.04092208668589592,0.03947295993566513,-0.01026248931884766,-0.002774477005004883,0.0004426240921020508,XArbitraryZVertical,-0.3094297415580981,-0.2639242510489838,-0.06880948864964133,0.9109678700511658,-0.523436427116394,0.5274401307106018,-0.6691944599151611,1918.933364875,unknown,2,2020-03-15 14:23:10.864 +0100,605971416.766933,0,-6.71,101.3038
2020-03-15 14:23:39.968 +0100,1948.035103375,-0.51824951171875,0.532470703125,-0.6726531982421875,1948.025055375,-0.3460223381323993,-0.6641397157797666,-0.5555879109385363,0.02114708721637726,-0.04075457528233528,0.0391768142580986,0.0005782842636108398,0.004821538925170898,-0.007404029369354248,XArbitraryZVertical,-0.3093521260421903,-0.2641919430704809,-0.06843953770188585,0.9109444809401754,-0.5236722230911255,0.5274428725242615,-0.6690077781677246,1918.933364875,unknown,2,2020-03-15 14:23:10.864 +0100,605971416.766933,0,-6.71,101.3038
2020-03-15 14:23:39.983 +0100,1948.050175375,-0.523040771484375,0.52838134765625,-0.6671905517578125,1948.040127375,-0.3453676145516167,-0.6644473503549013,-0.555641918171761,0.007281966507434845,-0.04537283629179001,0.02891749143600464,0.004520237445831299,0.005599677562713623,-0.007221400737762451,XArbitraryZVertical,-0.3092998695944293,-0.2644267210403838,-0.0680842077580348,0.9109207296140315,-0.5238604545593262,0.5274887681007385,-0.6688241958618164,1918.933364875,unknown,2,2020-03-15 14:23:10.864 +0100,605971416.766933,0,-6.71,101.3038
2020-03-15 14:23:39.998 +0100,1948.065247375,-0.5233917236328125,0.5288848876953125,-0.6686859130859375,1948.055199375,-0.3449795302555293,-0.6649494524462103,-0.5556589723112404,0.003313989378511906,-0.04290995746850967,0.02666229009628296,0.001157820224761963,0.0008701682090759277,0.001358449459075928,XArbitraryZVertical,-0.3092731042361278,-0.2647133356863805,-0.06782679142446663,0.9108657547419513,-0.5241906046867371,0.5275032520294189,-0.6685540080070496,1918.933364875,unknown,2,2020-03-15 14:23:10.864 +0100,605971416.766933,0,-6.71,101.3038
2020-03-15 14:23:40.013 +0100,1948.080319375,-0.52532958984375,0.5308380126953125,-0.6698455810546875,1948.070271375,-0.3445422972519206,-0.665414699827064,-0.5558671441728951,0.00261943694204092,-0.04708553105592728,0.03145837783813477,-0.002139031887054443,-0.0007257461547851562,0.0004025697708129883,XArbitraryZVertical,-0.3093225359128798,-0.2649674164720613,-0.06751890116562687,0.9107980188988474,-0.5244338512420654,0.5276800990104675,-0.6682236790657043,1918.933364875,unknown,2,2020-03-15 14:23:10.864 +0100,605971416.766933,0,-6.71,101.3038
2020-03-15 14:23:40.028 +0100,1948.095392375,-0.528289794921875,0.525421142578125,-0.655487060546875,1948.085344375,-0.3442105453608905,-0.666005261528771,-0.5561010806221316,-0.01030381862074137,-0.04777289181947708,0.02452057600021362,-0.0005695223808288574,0.002951323986053467,-0.002033770084381104,XArbitraryZVertical,-0.3094013692521401,-0.2652591064187815,-0.06723508288315874,0.9107073877302349,-0.5247520804405212,0.5278787612915039,-0.6678168177604675,1918.933364875,unknown,2,2020-03-15 14:23:10.864 +0100,605971416.766933,0,-6.71,101.3038
2020-03-15 14:23:40.043 +0100,1948.110464375,-0.5243682861328125,0.52484130859375,-0.6587371826171875,1948.100416375,-0.344019909824043,-0.6666017956825407,-0.5564295998946827,-0.01689150929450989,-0.04782844707369804,0.01785824634134769,-0.00352853536605835,0.0001086592674255371,0.004459381103515625,XArbitraryZVertical,-0.3095406461453364,-0.2655201433504392,-0.06699778167044509,0.910601413908672,-0.5250431299209595,0.5281577706336975,-0.6673672795295715,1918.933364875,unknown,2,2020-03-15 14:23:10.864 +0100,605971416.766933,0,-6.71,101.3038
2020-03-15 14:23:40.059 +0100,1948.125536375,-0.524261474609375,0.527130126953125,-0.6661834716796875,1948.115488375,-0.3439098535146975,-0.6671407014591071,-0.5568023501235758,-0.0170469619333744,-0.04356298223137856,0.01646947488188744,0.000920712947845459,-0.003641128540039062,0.008187174797058105,XArbitraryZVertical,-0.3097080449679844,-0.2657370482969101,-0.06679817151439786,0.9104958180487085,-0.5252808332443237,0.5284742712974548,-0.6669294834136963,1918.933364875,unknown,2,2020-03-15 14:23:10.864 +0100,605971416.766933,0,-6.71,101.3038
2020-03-15 14:23:40.073 +0100,1948.140608375,-0.5220184326171875,0.5192718505859375,-0.66448974609375,1948.130560375,-0.3436894596258394,-0.6675938666425728,-0.5570641750267671,0.005078771151602268,-0.03785707056522369,0.02472434192895889,-0.0005107522010803223,-0.002261221408843994,0.0008670687675476074,XArbitraryZVertical,-0.3098090236648021,-0.2659455224313799,-0.06658122035469169,0.9104164685178162,-0.5254973173141479,0.5286965370178223,-0.6665827035903931,1918.933364875,unknown,2,2020-03-15 14:23:10.864 +0100,605971416.766933,0,-6.71,101.3038
2020-03-15 14:23:40.088 +0100,1948.155680375,-0.5230712890625,0.519622802734375,-0.6575469970703125,1948.145632375,-0.3431020648804856,-0.6678121949279264,-0.557192034633469,0.01347145717591047,-0.03279466927051544,0.04000981897115707,0.003590643405914307,-0.00954127311706543,0.001920104026794434,XArbitraryZVertical,-0.3097943334022227,-0.2661202834286048,-0.06625735076651469,0.9103941438537031,-0.5256009697914124,0.5288050174713135,-0.6664149165153503,1918.933364875,unknown,2,2020-03-15 14:23:10.864 +0100,605971416.766933,0,-6.71,101.3038
2020-03-15 14:23:40.103 +0100,1948.170752375,-0.5227508544921875,0.5243682861328125,-0.655059814453125,1948.160704375,-0.3424665428815287,-0.6679521840695067,-0.5575696869370412,-0.007743608206510544,-0.02825328148901463,0.04654265195131302,0.002873599529266357,-0.01300525665283203,0.008418679237365723,XArbitraryZVertical,-0.3098805042616373,-0.2662364405563283,-0.06587936748750793,0.9103581944210573,-0.5255705118179321,0.5291255116462708,-0.6661844849586487,1918.933364875,unknown,2,2020-03-15 14:23:10.864 +0100,605971416.766933,0,-6.71,101.3038
2020-03-15 14:23:40.118 +0100,1948.185824375,-0.5196685791015625,0.5273590087890625,-0.653106689453125,1948.175776375,-0.3418516010791396,-0.6679987246890526,-0.5581054599926665,-0.003373074810951948,-0.01958278566598892,0.05080574378371239,0.002683162689208984,-0.005219995975494385,0.01087236404418945,XArbitraryZVertical,-0.310035809601367,-0.266287684668983,-0.06549719555535698,0.9103178770348134,-0.5254258513450623,0.5295801162719727,-0.6659373044967651,1918.933364875,unknown,2,2020-03-15 14:23:10.864 +0100,605971416.766933,0,-6.71,101.3038
2020-03-15 14:23:40.133 +0100,1948.200897375,-0.5137176513671875,0.5235137939453125,-0.6416015625,1948.190848375,-0.3411099463852926,-0.6678601542339002,-0.5586237019644321,-0.004281250759959221,-0.007060128264129162,0.05518531426787376,0.00388568639755249,-0.002485752105712891,0.01318627595901489,XArbitraryZVertical,-0.3101604437432686,-0.2662765479321314,-0.06508919736350051,0.9103080109231791,-0.5251635313034058,0.5300196409225464,-0.6657946109771729,1918.933364875,unknown,2,2020-03-15 14:23:10.864 +0100,605971416.766933,0,-6.71,101.3038
2020-03-15 14:23:40.148 +0100,1948.215969375,-0.51690673828125,0.52362060546875,-0.644561767578125,1948.205921375,-0.3404457507875722,-0.6676300864139391,-0.559165252490692,-0.01278019696474075,-0.007287828717380762,0.05550115928053856,0.0111231803894043,-0.006973326206207275,0.02408307790756226,XArbitraryZVertical,-0.3103027608764,-0.2662090468159546,-0.064726546296247,0.9103050704963588,-0.524832546710968,0.5304787755012512,-0.6656898856163025,1918.933364875,unknown,2,2020-03-15 14:23:10.864 +0100,605971419.3351135,0,-6.75,101.3052
2020-03-15 14:23:40.163 +0100,1948.231041375,-0.51788330078125,0.5346527099609375,-0.6475067138671875,1948.220993375,-0.3398106687368651,-0.6673668503703103,-0.559949904296683,-0.03262253478169441,-0.003928665071725845,0.05876033753156662,0.007317960262298584,-0.01075106859207153,0.02195620536804199,XArbitraryZVertical,-0.3105548517765327,-0.2660925290050078,-0.06433929105434029,0.9102806791159269,-0.5243995189666748,0.5311437249183655,-0.6655008792877197,1918.933364875,unknown,2,2020-03-15 14:23:10.864 +0100,605971419.3351135,0,-6.75,101.3052
2020-03-15 14:23:40.179 +0100,1948.246113375,-0.5241851806640625,0.5371551513671875,-0.65325927734375,1948.236065375,-0.3394882020470347,-0.6672272807544567,-0.5608937449847597,-0.05218463391065598,0.0001095160841941833,0.05920176208019257,0.006121158599853516,0.002701163291931152,0.01766800880432129,XArbitraryZVertical,-0.3109225957874288,-0.2659645603533474,-0.06404698622432178,0.9102131533873364,-0.5239961743354797,0.5319432020187378,-0.665179967880249,1918.933364875,unknown,2,2020-03-15 14:23:10.864 +0100,605971419.3351135,0,-6.75,101.3052
2020-03-15 14:23:40.194 +0100,1948.261185375,-0.52392578125,0.546722412109375,-0.657440185546875,1948.251137375,-0.3393230552217358,-0.6671092491397341,-0.5620827967920455,-0.06068015471100807,-0.002556633204221725,0.05786404758691788,0.001286923885345459,0.005356788635253906,0.01105272769927979,XArbitraryZVertical,-0.311419755048962,-0.2657922159903162,-0.06377955417668997,0.9101123381020391,-0.5235259532928467,0.532949686050415,-0.66474449634552,1918.933364875,unknown,2,2020-03-15 14:23:10.864 +0100,605971419.3351135,0,-6.75,101.3052
2020-03-15 14:23:40.209 +0100,1948.276257375,-0.5248870849609375,0.5491790771484375,-0.660797119140625,1948.266209375,-0.339383029442809,-0.6671570726865532,-0.5633650936278566,-0.07220710813999176,0.002676211297512054,0.04550378769636154,-0.0007829070091247559,0.01267963647842407,0.006736516952514648,XArbitraryZVertical,-0.3119930266562662,-0.2656489005436979,-0.06357221679679076,0.9099723523632776,-0.5231344699859619,0.534034252166748,-0.6641820073127747,1918.933364875,unknown,2,2020-03-15 14:23:10.864 +0100,605971419.3351135,0,-6.75,101.3052
2020-03-15 14:23:40.224 +0100,1948.291329375,-0.5290679931640625,0.5606689453125,-0.6660003662109375,1948.281281375,-0.3396018814236718,-0.6671804651856829,-0.5645554046130687,-0.05700137838721275,0.01173658017069101,0.03276921808719635,0.0003038644790649414,0.01483207941055298,0.003935515880584717,XArbitraryZVertical,-0.3125460655041779,-0.2654806869680104,-0.06345720260120567,0.9098396191186783,-0.5227562785148621,0.5350402593612671,-0.6636699438095093,1918.933364875,unknown,2,2020-03-15 14:23:10.864 +0100,605971419.3351135,0,-6.75,101.3052
2020-03-15 14:23:40.239 +0100,1948.306401375,-0.5290985107421875,0.5487823486328125,-0.670745849609375,1948.296353375,-0.3398248490916302,-0.6672060991895539,-0.565322528709492,-0.02803662791848183,0.01516955997794867,0.01946390047669411,-0.006540298461914062,0.02497208118438721,-0.002671897411346436,XArbitraryZVertical,-0.3129135857177533,-0.2653641416571236,-0.06341866848597955,0.9097500065061747,-0.5225191712379456,0.5356882214546204,-0.6633338928222656,1918.933364875,unknown,2,2020-03-15 14:23:10.864 +0100,605971419.3351135,0,-6.75,101.3052
2020-03-15 14:23:40.254 +0100,1948.321474375,-0.530029296875,0.5418701171875,-0.666717529296875,1948.311425375,-0.3398465318264403,-0.6670200631219075,-0.5655869722191746,0.001492614857852459,0.01747792959213257,0.004085808992385864,-0.005484938621520996,0.01550197601318359,-0.006241321563720703,XArbitraryZVertical,-0.3130267831694141,-0.2652439398004128,-0.0634107703803751,0.9097466247918089,-0.5223081111907959,0.535911500453949,-0.6633197665214539,1918.933364875,unknown,2,2020-03-15 14:23:10.864 +0100,605971419.3351135,0,-6.75,101.3052
2020-03-15 14:23:40.269 +0100,1948.336546375,-0.5296173095703125,0.5312957763671875,-0.657470703125,1948.326498375,-0.3397751775113153,-0.6667515940951882,-0.5655493598579997,0.01539431698620319,0.02253926545381546,-0.0009262599050998688,-0.007878363132476807,0.005981743335723877,-0.00324714183807373,XArbitraryZVertical,-0.3129922793738696,-0.2651375627413189,-0.06342699365827362,0.9097883762957669,-0.5221424698829651,0.5358797311782837,-0.6634758114814758,1918.933364875,unknown,2,2020-03-15 14:23:10.864 +0100,605971419.3351135,0,-6.75,101.3052
2020-03-15 14:23:40.284 +0100,1948.351618375,-0.524749755859375,0.5259857177734375,-0.6685638427734375,1948.341570375,-0.3397343496756822,-0.666428420772198,-0.5654569919766153,0.0006931163370609283,0.02029393799602985,0.001323211938142776,-0.008138477802276611,0.0005055069923400879,0.006405651569366455,XArbitraryZVertical,-0.3129360095413502,-0.265008173847548,-0.06347535567747999,0.9098420909158734,-0.5219586491584778,0.5358017086982727,-0.6636834144592285,1918.933364875,unknown,2,2020-03-15 14:23:10.864 +0100,605971419.3351135,0,-6.75,101.3052
2020-03-15 14:23:40.299 +0100,1948.366690375,-0.5255279541015625,0.536712646484375,-0.6728668212890625,1948.356642375,-0.33966126344751,-0.6661299355963389,-0.5656530774745049,0.008709666319191456,0.01979384012520313,0.009187227115035057,-0.00304567813873291,-0.009990215301513672,-0.004812657833099365,XArbitraryZVertical,-0.3130030207542161,-0.2648599605753095,-0.0634541068765689,0.9098637238402036,-0.521695613861084,0.5359672904014587,-0.6637566089630127,1918.933364875,unknown,2,2020-03-15 14:23:10.864 +0100,605971419.3351135,0,-6.75,101.3052
2020-03-15 14:23:40.314 +0100,1948.381762375,-0.5296478271484375,0.5407867431640625,-0.677490234375,1948.371714375,-0.3392610759647834,-0.6656591392146337,-0.5654774179147956,0.05312282592058182,0.01840290240943432,0.01090216916054487,-0.003239035606384277,-0.0004579424858093262,-0.007956981658935547,XArbitraryZVertical,-0.3128579522837188,-0.264729760580323,-0.06337676253292798,0.9099567437769673,-0.5214411020278931,0.5358189940452576,-0.6640760898590088,1918.933364875,unknown,2,2020-03-15 14:23:10.864 +0100,605971419.3351135,0,-6.75,101.3052
2020-03-15 14:23:40.329 +0100,1948.396834375,-0.5244140625,0.5509490966796875,-0.6685638427734375,1948.386786375,-0.3384468509603398,-0.6649904143867609,-0.565039569796835,0.06084626168012619,0.01726626604795456,0.009126373566687107,-0.008497536182403564,0.005328714847564697,-0.0128864049911499,XArbitraryZVertical,-0.3125364980502978,-0.2646059276565086,-0.06318824834920397,0.910116433573531,-0.5211416482925415,0.535449206829071,-0.6646092534065247,1918.933364875,unknown,2,2020-03-15 14:23:10.864 +0100,605971419.3351135,0,-6.75,101.3052
2020-03-15 14:23:40.344 +0100,1948.411906375,-0.5305023193359375,0.545166015625,-0.666046142578125,1948.401858375,-0.3378476130119748,-0.6644039556895243,-0.5644580807383629,0.04135294631123543,0.01796478219330311,-0.004730252549052238,-0.002713978290557861,0.01433420181274414,-0.007483780384063721,XArbitraryZVertical,-0.3121830100847823,-0.2645031004985499,-0.06310980591009632,0.9102729791399536,-0.5209436416625977,0.5349580645561218,-0.6651597619056702,1918.933364875,unknown,2,2020-03-15 14:23:10.864 +0100,605971419.3351135,0,-6.75,101.3052
2020-03-15 14:23:40.360 +0100,1948.426979375,-0.5283660888671875,0.55413818359375,-0.6688079833984375,1948.416930375,-0.3377280898396895,-0.6642727535688867,-0.5640461498746261,0.016525037586689,0.007176747545599937,-0.01635724678635597,-0.009501397609710693,0.01054716110229492,-0.0006501674652099609,XArbitraryZVertical,-0.3119818516261913,-0.2645118997803333,-0.06314858199317229,0.9103367094021507,-0.5209922194480896,0.5346099734306335,-0.6654015779495239,1918.933364875,unknown,2,2020-03-15 14:23:10.864 +0100,605971419.3351135,0,-6.75,101.3052
2020-03-15 14:23:40.375 +0100,1948.442051375,-0.5338897705078125,0.546722412109375,-0.6693572998046875,1948.432003375,-0.337978744693448,-0.6643385112969123,-0.5636731788538167,0.004368487745523453,0.009587602689862251,-0.02743097208440304,-0.007534205913543701,0.01763731241226196,-0.001198828220367432,XArbitraryZVertical,-0.3118530035974732,-0.2645478844217492,-0.0633182415434478,0.9103586211755219,-0.5211588740348816,0.5342947244644165,-0.6655242443084717,1918.933364875,unknown,2,2020-03-15 14:23:10.864 +0100,605971419.3351135,0,-6.75,101.3052
2020-03-15 14:23:40.390 +0100,1948.457123375,-0.529022216796875,0.5490875244140625,-0.6752166748046875,1948.447075375,-0.3382958524047042,-0.6643309182244376,-0.563152430530388,0.02654276415705681,0.01454134844243526,-0.03492910042405128,-0.01255571842193604,0.01285910606384277,-0.003615617752075195,XArbitraryZVertical,-0.3116655920732654,-0.2645580424004804,-0.06355568769721032,0.9104033586582906,-0.5213252902030945,0.5338544845581055,-0.6657472252845764,1918.933364875,unknown,2,2020-03-15 14:23:10.864 +0100,605971419.3351135,0,-6.75,101.3052
2020-03-15 14:23:40.405 +0100,1948.472195375,-0.527191162109375,0.53997802734375,-0.6758575439453125,1948.462147375,-0.3382575204311059,-0.6640493257434663,-0.5622090722547638,0.07515956461429596,0.01982641965150833,-0.04373371228575706,-0.008755683898925781,0.01405370235443115,-0.006688892841339111,XArbitraryZVertical,-0.3112364657545886,-0.2645500114183926,-0.06374856079784148,0.9105390521367507,-0.521448016166687,0.5330565571784973,-0.666290283203125,1918.933364875,unknown,2,2020-03-15 14:23:10.864 +0100,605971419.3351135,0,-6.75,101.3052
2020-03-15 14:23:40.421 +0100,1948.487267375,-0.526397705078125,0.5380859375,-0.6748809814453125,1948.477219375,-0.3377943323163242,-0.6634619279409742,-0.5606581544142644,0.124172255396843,0.0233673769980669,-0.04861019551753998,-0.005617380142211914,0.008225440979003906,-0.008616089820861816,XArbitraryZVertical,-0.3104738401540609,-0.2645420442506817,-0.06390242123576906,0.9107908439848691,-0.5215650200843811,0.5317437052726746,-0.6672469973564148,1918.933364875,unknown,2,2020-03-15 14:23:10.864 +0100,605971419.3351135,0,-6.75,101.3052
2020-03-15 14:23:40.451 +0100,1948.502339375,-0.523834228515625,0.52178955078125,-0.6646575927734375,1948.492291375,-0.3370638934901771,-0.6627761892432612,-0.5587133238639721,0.1332745254039764,0.01913935504853725,-0.05216840654611588,-0.00746917724609375,0.007767856121063232,-0.007826089859008789,XArbitraryZVertical,-0.3094988401286224,-0.2645774970310721,-0.06401855501318321,0.9111041473595883,-0.5217426419258118,0.530095636844635,-0.6684184074401855,1918.933364875,unknown,2,2020-03-15 14:23:10.864 +0100,605971419.3351135,0,-6.75,101.3052
2020-03-15 14:23:40.465 +0100,1948.517411375,-0.5251922607421875,0.510650634765625,-0.6569976806640625,1948.507363375,-0.3365765053617045,-0.6623785415528376,-0.5569892028640846,0.09707792103290558,0.01039247028529644,-0.05459721013903618,-0.001787364482879639,-0.006852149963378906,0.004682421684265137,XArbitraryZVertical,-0.308661955969513,-0.2646791081494059,-0.06416131179516513,0.9113484633058582,-0.5220381021499634,0.5286328792572021,-0.6693455576896667,1918.933364875,unknown,2,2020-03-15 14:23:10.864 +0100,605971419.3351135,0,-6.75,101.3052
2020-03-15 14:23:40.467 +0100,1948.532484375,-0.521026611328125,0.5103759765625,-0.6593170166015625,1948.522435375,-0.3366834670983428,-0.6624063673266517,-0.5559306787469303,0.01561535894870758,-0.002397775650024414,-0.05035080015659332,-0.004186689853668213,-0.01729059219360352,0.009808540344238281,XArbitraryZVertical,-0.3082104477016892,-0.2648025039827688,-0.06439194799177242,0.911449236187817,-0.5224006175994873,0.5277340412139893,-0.6697719097137451,1918.933364875,unknown,2,2020-03-15 14:23:10.864 +0100,605971419.3351135,0,-6.75,101.3052
2020-03-15 14:23:40.480 +0100,1948.547556375,-0.5195465087890625,0.5216827392578125,-0.6774139404296875,1948.537508375,-0.3374119881295298,-0.6630048836521566,-0.5557846156863669,-0.02241924218833447,-0.0175855029374361,-0.03745334595441818,0.0018310546875,-0.01724296808242798,0.0101972222328186,XArbitraryZVertical,-0.3082619009125075,-0.2649805452738359,-0.0646573849257419,0.9113612154425322,-0.5228487849235535,0.5276100039482117,-0.66951984167099,1918.933364875,unknown,2,2020-03-15 14:23:10.864 +0100,605971419.3351135,0,-6.75,101.3052
2020-03-15 14:23:40.495 +0100,1948.562628375,-0.517486572265625,0.536346435546875,-0.6811981201171875,1948.552580375,-0.3380051435302671,-0.6636367885146539,-0.5557275851556932,-0.0007632151246070862,-0.02065213397145271,-0.02879780530929565,0.001860618591308594,-0.01194554567337036,-0.002530217170715332,XArbitraryZVertical,-0.3083358331806068,-0.2651839060288025,-0.06484030174089844,0.9112640895269476,-0.5232903361320496,0.5275615453720093,-0.6692129969596863,1918.933364875,unknown,2,2020-03-15 14:23:10.864 +0100,605971419.3351135,0,-6.75,101.3052
2020-03-15 14:23:40.510 +0100,1948.577700375,-0.5235595703125,0.5283966064453125,-0.665924072265625,1948.567652375,-0.3382176655251582,-0.6639838523650001,-0.5552753665076738,0.03622090071439743,-0.01343629788607359,-0.03139305487275124,0.006191909313201904,0.009160161018371582,-0.01198458671569824,XArbitraryZVertical,-0.3081760281869795,-0.2653637824300519,-0.06496334922259003,0.9112570464688301,-0.5236695408821106,0.5271773338317871,-0.6692191958427429,1918.933364875,unknown,2,2020-03-15 14:23:10.864 +0100,605971419.3351135,0,-6.75,101.3052
2020-03-15 14:23:40.525 +0100,1948.592772375,-0.5164794921875,0.525848388671875,-0.6637725830078125,1948.582724375,-0.3382245345120897,-0.664152503198663,-0.5545781448462755,0.02974949777126312,-0.0140090249478817,-0.02840232476592064,0.001678943634033203,0.00419849157333374,-0.001011013984680176,XArbitraryZVertical,-0.3078752248483418,-0.2655236008055718,-0.06506342576222499,0.9113050082218407,-0.5240088105201721,0.5265847444534302,-0.6694201231002808,1918.933364875,unknown,2,2020-03-15 14:23:10.864 +0100,605971419.3351135,0,-6.75,101.3052
2020-03-15 14:23:40.540 +0100,1948.607844375,-0.5209503173828125,0.528076171875,-0.6674346923828125,1948.597796375,-0.3384741291893762,-0.6645188625836164,-0.554006314280482,0.00656861811876297,-0.01056538056582212,-0.03024510107934475,0.007969200611114502,-0.0002591609954833984,0.005686759948730469,XArbitraryZVertical,-0.3076683354711533,-0.2657210399619361,-0.06522162717306143,0.9113060377159916,-0.5244396328926086,0.5260984897613525,-0.6694650650024414,1918.933364875,unknown,2,2020-03-15 14:23:10.864 +0100,605971419.3351135,0,-6.75,101.3052
2020-03-15 14:23:40.555 +0100,1948.622916375,-0.5218505859375,0.521331787109375,-0.6620025634765625,1948.612868375,-0.3388689286000452,-0.664915551778687,-0.5535764226525679,0.0117079121991992,-0.009616406634449959,-0.03494677692651749,0.00568854808807373,0.001128971576690674,0.003322124481201172,XArbitraryZVertical,-0.3075443442377265,-0.2658929041896443,-0.06541636008288952,0.9112838035934666,-0.5248446464538574,0.5257328748703003,-0.6694349050521851,1918.933364875,unknown,2,2020-03-15 14:23:10.864 +0100,605971419.3351135,0,-6.75,101.3052
2020-03-15 14:23:40.570 +0100,1948.637988375,-0.52191162109375,0.519500732421875,-0.654693603515625,1948.627940375,-0.3391895190815992,-0.6651136557234243,-0.5529397056700373,0.01630639284849167,0.001282580196857452,-0.0365060567855835,0.003342151641845703,-0.003868222236633301,0.007586002349853516,XArbitraryZVertical,-0.3073129145028631,-0.2660106988344194,-0.06564438664531434,0.9113111260469137,-0.5251837372779846,0.5251911282539368,-0.6695941686630249,1918.933364875,unknown,2,2020-03-15 14:23:10.864 +0100,605971419.3351135,0,-6.75,101.3052
2020-03-15 14:23:40.586 +0100,1948.653061375,-0.5215606689453125,0.5156707763671875,-0.658538818359375,1948.643012375,-0.3395888057741512,-0.6652147584175998,-0.5525374236170786,-0.007669838611036539,0.00263243168592453,-0.03667906671762466,0.0007174015045166016,-0.007798492908477783,0.01384824514389038,XArbitraryZVertical,-0.3071921082204034,-0.2660439800913473,-0.06588182042157725,0.9113249791567771,-0.5253818035125732,0.5248487591743469,-0.6697072386741638,1918.933364875,unknown,2,2020-03-15 14:23:10.864 +0100,605971419.3351135,0,-6.75,101.3052
2020-03-15 14:23:40.601 +0100,1948.668133375,-0.5220184326171875,0.5078887939453125,-0.6599884033203125,1948.658085375,-0.3400749458316332,-0.6653273689519634,-0.5524349562656399,-0.002926405984908342,0.00802761223167181,-0.02962241880595684,0.003938794136047363,-0.009099781513214111,0.01114583015441895,XArbitraryZVertical,-0.3072153574493602,-0.2660329999279878,-0.06610412792693998,0.9113042083347785,-0.525490403175354,0.5247615575790405,-0.6696903109550476,1918.933364875,unknown,2,2020-03-15 14:23:10.864 +0100,605971419.3351135,0,-6.75,101.3052
2020-03-15 14:23:40.616 +0100,1948.683205375,-0.5178070068359375,0.511566162109375,-0.649993896484375,1948.673157375,-0.340239367835503,-0.6652654844661288,-0.5520897595633124,0.03176651895046234,0.01641485467553139,-0.01880066469311714,0.0002096891403198242,-0.01417696475982666,0.009062588214874268,XArbitraryZVertical,-0.3070830612531472,-0.2660212524015581,-0.06624953540854443,0.911341745897031,-0.525560736656189,0.5244676470756531,-0.6698653697967529,1918.933364875,unknown,2,2020-03-15 14:23:10.864 +0100,605971419.3351135,0,-6.75,101.3052
2020-03-15 14:23:40.631 +0100,1948.698277375,-0.5225830078125,0.4979705810546875,-0.6381988525390625,1948.688229375,-0.3400640620726225,-0.6648412194562029,-0.5516836466023636,0.02331710606813431,0.02621768414974213,-0.007299803197383881,0.007609903812408447,-0.01256459951400757,0.02025634050369263,XArbitraryZVertical,-0.3068667331859268,-0.265903877817747,-0.06630647783836886,0.9114447349857807,-0.5254079103469849,0.5241218209266663,-0.6702558994293213,1918.933364875,unknown,2,2020-03-15 14:23:10.864 +0100,605971419.3351135,0,-6.75,101.3052
2020-03-15 14:23:40.646 +0100,1948.713349375,-0.5180816650390625,0.4953765869140625,-0.6398773193359375,1948.703301375,-0.3399791072861806,-0.6643287927856643,-0.5516476182843765,-0.007073823362588882,0.033203125,0.01005568355321884,0.004928290843963623,-0.02062129974365234,0.03285408020019531,XArbitraryZVertical,-0.3068225938450907,-0.2656877351581777,-0.06635272656518518,0.9115191911161581,-0.5250759720802307,0.5240911245346069,-0.6705398559570312,1918.933364875,unknown,2,2020-03-15 14:23:10.864 +0100,605971419.3351135,0,-6.75,101.3052
2020-03-15 14:23:40.661 +0100,1948.728422625,-0.5147247314453125,0.49920654296875,-0.6490631103515625,1948.718373375,-0.3399017523796641,-0.6637842216475757,-0.5520647965113512,-0.02540251612663269,0.0436709001660347,0.03062497638165951,0.006503582000732422,-0.02907902002334595,0.03077024221420288,XArbitraryZVertical,-0.3069781432404387,-0.2654010602697568,-0.06632746506803476,0.9115521325579767,-0.52457594871521,0.524446427822113,-0.6706534028053284,1918.933364875,unknown,2,2020-03-15 14:23:10.864 +0100,605971419.3351135,0,-6.75,101.3052
2020-03-15 14:23:40.676 +0100,1948.743494625,-0.514739990234375,0.489959716796875,-0.63580322265625,1948.733446625,-0.3394606357095051,-0.6627971232544132,-0.5525880587985397,0.007189745083451271,0.06347277760505676,0.05452577769756317,0.0091971755027771,-0.02506899833679199,0.02487623691558838,XArbitraryZVertical,-0.3071175993431724,-0.2649557398984568,-0.06618576934026443,0.911645017636349,-0.5237447619438171,0.5248918533325195,-0.6709544658660889,1918.933364875,unknown,2,2020-03-15 14:23:10.864 +0100,605971419.3351135,0,-6.75,101.3052
2020-03-15 14:23:40.691 +0100,1948.758567625,-0.5180816650390625,0.472686767578125,-0.6135101318359375,1948.748518625,-0.3385043280792813,-0.661245850951608,-0.55308034706196,-0.01050642784684896,0.08544598519802094,0.07870461791753769,0.007813870906829834,-0.03536033630371094,0.03575313091278076,XArbitraryZVertical,-0.3071568637431252,-0.2643361196396823,-0.06590148002355828,0.9118323006155848,-0.5225446224212646,0.5253108143806458,-0.671562135219574,1918.933364875,unknown,2,2020-03-15 14:23:10.864 +0100,605971419.3351135,0,-6.75,101.3052
2020-03-15 14:23:40.706 +0100,1948.773639625,-0.5283050537109375,0.4488372802734375,-0.5900115966796875,1948.763591625,-0.3377060915747358,-0.6594450585376146,-0.554448471764949,-0.08558913320302963,0.100765123963356,0.1084791943430901,0.004026472568511963,-0.04744923114776611,0.05225306749343872,XArbitraryZVertical,-0.3075957164386426,-0.263473235998437,-0.06557424317750021,0.9119577453571839,-0.5208936333656311,0.5264744758605957,-0.6719334721565247,1918.933364875,unknown,2,2020-03-15 14:23:10.864 +0100,605971419.3351135,0,-6.75,101.3052
2020-03-15 14:23:40.721 +0100,1948.788711625,-0.527496337890625,0.4406280517578125,-0.5887451171875,1948.778663625,-0.3371233460545618,-0.6575335343331712,-0.5569031061858385,-0.1217919215559959,0.1268916875123978,0.1579747051000595,-0.009479165077209473,-0.07973170280456543,0.0818856954574585,XArbitraryZVertical,-0.3085393767044751,-0.2623965594538541,-0.06517327156082174,0.9119780532230448,-0.5188168287277222,0.5285598039627075,-0.6719030141830444,1918.933364875,unknown,2,2020-03-15 14:23:10.864 +0100,605971419.3351135,0,-6.75,101.3052
2020-03-15 14:23:40.737 +0100,1948.803783625,-0.5186309814453125,0.4230499267578125,-0.581817626953125,1948.793735625,-0.335853787768109,-0.6546046897270362,-0.5599757569023786,-0.113483615219593,0.1849881261587143,0.2116769552230835,-0.01398175954818726,-0.08973807096481323,0.08728355169296265,XArbitraryZVertical,-0.3096338402980216,-0.2608885611162605,-0.06451074941327378,0.9120868221553247,-0.5158554315567017,0.5311656594276428,-0.6721280813217163,1918.933364875,unknown,2,2020-03-15 14:23:10.864 +0100,605971419.3351135,0,-6.75,101.3052
2020-03-15 14:23:40.752 +0100,1948.818855625,-0.505279541015625,0.4208526611328125,-0.5948638916015625,1948.808807625,-0.3334954331556111,-0.6502099156726751,-0.5633061041186846,-0.06548786163330078,0.2461771965026855,0.2837607264518738,-0.006799101829528809,-0.1109437942504883,0.09115356206893921,XArbitraryZVertical,-0.3106564980681262,-0.2588514888915988,-0.0635382143160169,0.912387684940931,-0.5118229389190674,0.5339844226837158,-0.6729769110679626,1918.933364875,unknown,2,2020-03-15 14:23:10.864 +0100,605971419.3351135,0,-6.75,101.3052
2020-03-15 14:23:40.767 +0100,1948.833927625,-0.495391845703125,0.417755126953125,-0.5783538818359375,1948.823879625,-0.3294214558011292,-0.6438709307021621,-0.5665886619018599,-0.01360842119902372,0.3094580769538879,0.3437711894512177,-0.006667852401733398,-0.1183091402053833,0.0812450647354126,XArbitraryZVertical,-0.3113827793940969,-0.2562022767058042,-0.06209907772115943,0.9129868337915222,-0.5064917802810669,0.5367569327354431,-0.674802303314209,1918.933364875,unknown,2,2020-03-15 14:23:10.864 +0100,605971419.3351135,0,-6.75,101.3052
2020-03-15 14:23:40.782 +0100,1948.848999625,-0.493316650390625,0.411407470703125,-0.5572967529296875,1948.838951625,-0.3242024851140787,-0.6358552482873907,-0.5698611244525472,0.01329030375927687,0.3852376341819763,0.3919823169708252,0.004637539386749268,-0.1217692494392395,0.0990641713142395,XArbitraryZVertical,-0.3119205738663725,-0.2529698817177865,-0.0604063903663648,0.9138177579269133,-0.5000207424163818,0.5395151376724243,-0.6774235963821411,1918.933364875,unknown,2,2020-03-15 14:23:10.864 +0100,605971419.3351135,0,-6.75,101.3052
2020-03-15 14:23:40.797 +0100,1948.864072625,-0.484161376953125,0.3968353271484375,-0.5247955322265625,1948.854024625,-0.3179922781371083,-0.6259667276835962,-0.5736612909171227,-0.03296827152371407,0.4789111018180847,0.4642396867275238,-0.004022777080535889,-0.1298480033874512,0.1144397258758545,XArbitraryZVertical,-0.3125315704255894,-0.2489775676783365,-0.0584712874810795,0.9148306944488703,-0.4920928776264191,0.5427108407020569,-0.6806683540344238,1918.933364875,unknown,2,2020-03-15 14:23:10.864 +0100,605971419.3351135,0,-6.75,101.3052
2020-03-15 14:23:40.812 +0100,1948.879144625,-0.4761505126953125,0.352874755859375,-0.504150390625,1948.869096625,-0.3115737065880287,-0.6144947271524693,-0.5792119650137526,-0.1565674394369125,0.5778073072433472,0.5505239963531494,-0.001645207405090332,-0.1505386829376221,0.1589959263801575,XArbitraryZVertical,-0.3138757274061887,-0.2440974603724132,-0.05641055552950811,0.9158146064732161,-0.4825078547000885,0.5473645925521851,-0.6837969422340393,1918.933364875,unknown,2,2020-03-15 14:23:10.864 +0100,605971419.3351135,0,-6.75,101.3052
2020-03-15 14:23:40.827 +0100,1948.894216625,-0.4669342041015625,0.31536865234375,-0.48956298828125,1948.884168625,-0.3047027274854756,-0.6012536701272787,-0.5871909441370097,-0.2666410803794861,0.6793267726898193,0.6799986958503723,-0.008359581232070923,-0.1843443512916565,0.1763039231300354,XArbitraryZVertical,-0.3162316867971862,-0.2382150076372324,-0.05405058960994554,0.9166949732926081,-0.4709260165691376,0.5540246963500977,-0.6865022778511047,1918.933364875,unknown,2,2020-03-15 14:23:10.864 +0100,605971419.3351135,0,-6.75,101.3052
2020-03-15 14:23:40.842 +0100,1948.909288625,-0.4406585693359375,0.2996826171875,-0.4806976318359375,1948.899240625,-0.296067643574992,-0.5853327068104301,-0.5971328262372453,-0.2782526016235352,0.7977252602577209,0.852836012840271,-0.01005494594573975,-0.2469149231910706,0.1997187733650208,XArbitraryZVertical,-0.3192324484006416,-0.2311861598726136,-0.05103819537158434,0.9176266806037926,-0.4568712711334229,0.5622738003730774,-0.6892871856689453,1918.933364875,unknown,2,2020-03-15 14:23:10.864 +0100,605971419.3351135,0,-6.75,101.3052
2020-03-15 14:23:40.857 +0100,1948.924360625,-0.390960693359375,0.3089447021484375,-0.5092620849609375,1948.914312625,-0.2840580916360212,-0.5653381497870984,-0.6079913494019445,-0.2043401449918747,0.9491289258003235,1.035182118415833,-0.01094323396682739,-0.267793595790863,0.2071352601051331,XArbitraryZVertical,-0.3222326358830689,-0.2227611063217042,-0.04705180798943028,0.9188742522006714,-0.4397021532058716,0.5712199211120605,-0.6930872201919556,1918.933364875,unknown,2,2020-03-15 14:23:10.864 +0100,605971419.3351135,0,-6.75,101.3052
2020-03-15 14:23:40.872 +0100,1948.939432625,-0.2963714599609375,0.4031829833984375,-0.52520751953125,1948.929384625,-0.26747804715718,-0.5403984475601004,-0.6187400177125987,-0.07085690647363663,1.088827013969421,1.245099663734436,0.02814528346061707,-0.2710745930671692,0.1892637014389038,XArbitraryZVertical,-0.3246941323828745,-0.2128572149487343,-0.04186075560305656,0.9206048019342453,-0.4190986454486847,0.5800092220306396,-0.6985310316085815,1918.933364875,unknown,2,2020-03-15 14:23:10.864 +0100,605971419.3351135,0,-6.75,101.3052
2020-03-15 14:23:40.887 +0100,1948.954504625,-0.3042755126953125,0.373138427734375,-0.450347900390625,1948.944456625,-0.2470844918220698,-0.5109209487770262,-0.6291994578532735,-0.04638594388961792,1.247213959693909,1.336243033409119,0.07117438316345215,-0.2103341221809387,0.1655712127685547,XArbitraryZVertical,-0.3267222687600203,-0.2015638148986677,-0.03578167449027967,0.92268319063311,-0.3953404128551483,0.5884976983070374,-0.7052491903305054,1918.933364875,unknown,2,2020-03-15 14:23:10.864 +0100,605971419.3351135,0,-6.75,101.3052
2020-03-15 14:23:40.902 +0100,1948.969577625,-0.2853546142578125,0.360260009765625,-0.366424560546875,1948.959528625,-0.2252087513439641,-0.4779557772332859,-0.6405044107650648,-0.1856388300657272,1.404829621315002,1.446576237678528,0.06452840566635132,-0.2244721055030823,0.2615899443626404,XArbitraryZVertical,-0.3291681590175186,-0.1888831783372412,-0.02957666251255562,0.9247143176983328,-0.3687973618507385,0.5975999236106873,-0.7119429111480713,1918.933364875,unknown,2,2020-03-15 14:23:10.864 +0100,605971419.3351135,0,-6.75,101.3052
2020-03-15 14:23:40.917 +0100,1948.984649625,-0.23126220703125,0.4086456298828125,-0.3148040771484375,1948.974601625,-0.2021966336581166,-0.4415088757045131,-0.6550281902200291,-0.4776456654071808,1.598254561424255,1.573622226715088,0.03926494717597961,-0.2542116641998291,0.322235643863678,XArbitraryZVertical,-0.3332055970571789,-0.1745889637287301,-0.02316292455778205,0.9262593226607287,-0.338865339756012,0.6091815829277039,-0.7169854640960693,1918.933364875,unknown,2,2020-03-15 14:23:10.864 +0100,605971419.3351135,0,-6.75,101.3052
2020-03-15 14:23:40.933 +0100,1948.999721625,-0.1954193115234375,0.3811492919921875,-0.38433837890625,1948.989673625,-0.1787568052617656,-0.4014401728358067,-0.6737270094405773,-0.7419713735580444,1.805192828178406,1.680101037025452,0.07411062717437744,-0.2152682542800903,0.4045628309249878,XArbitraryZVertical,-0.3393956018424056,-0.1585077663915093,-0.01691531780799255,0.9270382308495621,-0.30536749958992,0.6239029765129089,-0.7193718552589417,1918.933364875,unknown,2,2020-03-15 14:23:10.864 +0100,605971419.3351135,0,-6.75,101.3052
2020-03-15 14:23:40.965 +0100,1949.014793625,-0.108154296875,0.48870849609375,-0.459686279296875,1949.004745625,-0.1518938103545212,-0.3559553274978921,-0.6935955442298153,-0.6414303779602051,1.974621653556824,1.861175298690796,0.05374041199684143,-0.2595412135124207,0.3660849332809448,XArbitraryZVertical,-0.3461876804144417,-0.1406384377465982,-0.01022951675876917,0.9275076406483214,-0.2679691016674042,0.6393061280250549,-0.7207498550415039,1918.933364875,unknown,2,2020-03-15 14:23:10.864 +0100,605971419.3351135,0,-6.75,101.3052
2020-03-15 14:23:40.967 +0100,1949.029865625,-0.05859375,0.5169219970703125,-0.501861572265625,1949.019817625,-0.1189976040323888,-0.3033805612700677,-0.7098884556059306,-0.306607574224472,2.190547943115234,1.987593173980713,0.118430569767952,-0.1630520820617676,0.264107346534729,XArbitraryZVertical,-0.3513648031777927,-0.1210106363093076,-0.002693554449696673,0.9283813682048373,-0.2265808880329132,0.6517491936683655,-0.723798394203186,1918.933364875,unknown,2,2020-03-15 14:23:10.864 +0100,605971419.3351135,0,-6.75,101.3052
2020-03-15 14:23:40.977 +0100,1949.044937625,-0.0137481689453125,0.4947052001953125,-0.5234222412109375,1949.034889625,-0.08088401440027,-0.2437233948568301,-0.7206727799160673,-0.07234630733728409,2.391892433166504,2.080384492874146,0.1085814088582993,-0.1403400897979736,0.2414044141769409,XArbitraryZVertical,-0.3542872616549301,-0.09951067913415557,0.00527192917757318,0.9298120018709382,-0.1813168972730637,0.6598902940750122,-0.7291563153266907,1918.933364875,unknown,2,2020-03-15 14:23:10.864 +0100,605971419.3351135,0,-6.75,101.3052
2020-03-15 14:23:40.993 +0100,1949.060009625,0.0236968994140625,0.556304931640625,-0.461944580078125,1949.049961625,-0.03927319242563408,-0.1790659892656551,-0.7287248052798752,-0.1482623666524887,2.514269828796387,2.169942378997803,0.1191289275884628,-0.1712250709533691,0.2106688618659973,XArbitraryZVertical,-0.356498241180608,-0.07655832955702732,0.01358383661878596,0.9310549986345964,-0.1328748017549515,0.6659188270568848,-0.7340956330299377,1918.933364875,unknown,2,2020-03-15 14:23:10.864 +0100,605971419.3351135,0,-6.75,101.3052
2020-03-15 14:23:41.008 +0100,1949.075082625,0.0550384521484375,0.6033477783203125,-0.440948486328125,1949.065034625,0.004180193774427342,-0.111119754700744,-0.7371559226715619,-0.3214187324047089,2.64520001411438,2.240447521209717,0.098735511302948,-0.1355448365211487,0.2487062215805054,XArbitraryZVertical,-0.359624268015135,-0.05255361551931451,0.02195400518706731,0.9313573367777546,-0.08210200816392899,0.672184944152832,-0.735817015171051,1918.933364875,unknown,2,2020-03-15 14:23:10.864 +0100,605971419.3351135,0,-6.75,101.3052
2020-03-15 14:23:41.023 +0100,1949.090154625,0.130462646484375,0.6441650390625,-0.515777587890625,1949.080106625,0.05027350323587255,-0.03909761490122683,-0.7455528526490989,-0.4484296441078186,2.785324335098267,2.342993259429932,0.08375716209411621,-0.07504183053970337,0.2931985855102539,XArbitraryZVertical,-0.3635603586226608,-0.02735143320326963,0.03052043592106224,0.9306687744427056,-0.02871820889413357,0.6783781051635742,-0.7341515421867371,1918.933364875,unknown,2,2020-03-15 14:23:10.864 +0100,605971419.3351135,0,-6.75,101.3052
2020-03-15 14:23:41.038 +0100,1949.105226625,0.2509918212890625,0.7867279052734375,-0.6981658935546875,1949.095178625,0.09941225518007403,0.03688742971519826,-0.7526223453165355,-0.4321875274181366,2.829157590866089,2.429816961288452,0.0783824697136879,-0.05145633220672607,0.2693451642990112,XArbitraryZVertical,-0.3678282164043395,-0.001125007705329509,0.03943196237586432,0.9290565568232425,0.02691798470914364,0.6835551261901855,-0.7294023036956787,1918.933364875,unknown,2,2020-03-15 14:23:10.864 +0100,605971419.3351135,0,-6.75,101.3052
2020-03-15 14:23:41.053 +0100,1949.120298625,0.3208465576171875,0.872833251953125,-0.7515411376953125,1949.110250625,0.1502759687657287,0.1145752583123715,-0.754090308992182,-0.1056781262159348,2.873368740081787,2.44090461730957,0.167659729719162,0.1020904779434204,0.02594512701034546,XArbitraryZVertical,-0.3705298303205746,0.02549167226983132,0.04865897537322642,0.9271948223920069,0.08333069831132889,0.6846258640289307,-0.7241156101226807,1918.933364875,unknown,2,2020-03-15 14:23:10.864 +0100,605971419.3351135,0,-6.75,101.3052
2020-03-15 14:23:41.068 +0100,1949.135370625,0.3521575927734375,0.819366455078125,-0.7204742431640625,1949.125322625,0.1989190354687369,0.1918190880496643,-0.746768557794281,0.3384842276573181,2.966652393341064,2.397647142410278,0.1747371554374695,0.1947716474533081,-0.01967424154281616,XArbitraryZVertical,-0.370151444872807,0.05267023952627925,0.05727052326777717,0.9257071784910033,0.1399119645357132,0.6792708039283752,-0.7204275131225586,1918.933364875,unknown,2,2020-03-15 14:23:10.864 +0100,605971419.3351135,0,-6.75,101.3052
2020-03-15 14:23:41.083 +0100,1949.150442625,0.4379730224609375,0.789520263671875,-0.6420745849609375,1949.140394625,0.244621851377749,0.2677595856554725,-0.7317077861289552,0.5401674509048462,3.018981218338013,2.422607421875,0.1553039699792862,0.151214063167572,-0.002957344055175781,XArbitraryZVertical,-0.3671044099712082,0.08045837166130826,0.06551675748687838,0.9243746264456308,0.1968503296375275,0.66814124584198,-0.717521607875824,1918.933364875,unknown,2,2020-03-15 14:23:10.864 +0100,605971419.3351135,0,-6.75,101.3052
2020-03-15 14:23:41.098 +0100,1949.165514625,0.52301025390625,0.730072021484375,-0.643829345703125,1949.155466625,0.2883416294845804,0.3426623278598264,-0.7130679987458306,0.4660782516002655,3.081539630889893,2.484730958938599,0.1574835181236267,0.1520603895187378,0.05710828304290771,XArbitraryZVertical,-0.3633047982334533,0.1087032296797813,0.07377550266887493,0.922361371236077,0.2541333138942719,0.6541573405265808,-0.7123864889144897,1918.933364875,unknown,2,2020-03-15 14:23:10.864 +0100,605971419.3351135,0,-6.75,101.3052
2020-03-15 14:23:41.113 +0100,1949.180587625,0.6065216064453125,0.7008514404296875,-0.6805419921875,1949.170539625,0.3323822783435362,0.417561831115235,-0.6946924975703717,0.1175953820347786,3.051766633987427,2.54062819480896,0.2114540934562683,0.08991211652755737,0.05840849876403809,XArbitraryZVertical,-0.3606634019254928,0.1371149420741813,0.08258742173402286,0.9188583682659572,0.3115509450435638,0.6401492357254028,-0.7022427916526794,1918.933364875,unknown,2,2020-03-15 14:23:10.864 +0100,605971419.3351135,0,-6.75,101.3052
2020-03-15 14:23:41.128 +0100,1949.195659625,0.6782073974609375,0.6994476318359375,-0.69805908203125,1949.185611625,0.3778171396306571,0.491854645361787,-0.6778117461501546,-0.1046756878495216,2.992665529251099,2.654375076293945,0.2137618660926819,0.08719408512115479,0.01596516370773315,XArbitraryZVertical,-0.3598333210616871,0.1649706771460076,0.09227842494055406,0.9136681116202825,0.3678666055202484,0.6270899772644043,-0.6866093277931213,1918.933364875,unknown,2,2020-03-15 14:23:10.864 +0100,605971419.3351135,0,-6.75,101.3052
2020-03-15 14:23:41.143 +0100,1949.210731625,0.79547119140625,0.679412841796875,-0.7696075439453125,1949.200683625,0.4237308147517309,0.5650705299402117,-0.6580077167215909,0.01606330275535583,2.947909832000732,2.81361985206604,0.2545256614685059,0.08789563179016113,-0.0298457145690918,XArbitraryZVertical,-0.3588330606278829,0.1926898631839214,0.1030515996303218,0.9074634093642516,0.4236746430397034,0.611541748046875,-0.6682189106941223,1918.933364875,unknown,2,2020-03-15 14:23:10.864 +0100,605971419.3351135,0,-6.75,101.3052
2020-03-15 14:23:41.158 +0100,1949.225803625,0.919281005859375,0.6604156494140625,-0.79388427734375,1949.215755625,0.4671025936670159,0.63531245903256,-0.630858333394109,0.3492796123027802,2.900059938430786,2.99803614616394,0.2697781324386597,0.1065479516983032,-0.09088754653930664,XArbitraryZVertical,-0.3554228483723654,0.2206650793543089,0.1147431766133699,0.9010080881227223,0.4792067408561707,0.5898380875587463,-0.6499630212783813,1918.933364875,unknown,2,2020-03-15 14:23:10.864 +0100,605971419.3351135,0,-6.75,101.3052
2020-03-15 14:23:41.173 +0100,1949.240875625,0.997406005859375,0.6393280029296875,-0.782257080078125,1949.230827625,0.5057170724227584,0.7008782214043014,-0.5975859063812904,0.4933622181415558,2.844941139221191,3.012352466583252,0.3861445188522339,0.09775769710540771,-0.1620662808418274,XArbitraryZVertical,-0.3497656635195376,0.2484992201418203,0.1267111980821539,0.8943468808266216,0.53312748670578,0.5626484155654907,-0.631824254989624,1918.933364875,unknown,2,2020-03-15 14:23:10.864 +0100,605971419.3351135,0,-6.75,101.3052
2020-03-15 14:23:41.189 +0100,1949.255947625,1.093002319335938,0.6741180419921875,-0.839202880859375,1949.245899625,0.5396972156010574,0.761488854371041,-0.5615931244606523,0.5248023867607117,2.712320566177368,2.978837013244629,0.3918141722679138,0.1106594800949097,-0.165734589099884,XArbitraryZVertical,-0.3431518279769006,0.2755500055045054,0.1385470685118582,0.8871999905645007,0.584021270275116,0.5325353145599365,-0.6126380562782288,1918.933364875,unknown,2,2020-03-15 14:23:10.864 +0100,605971419.3351135,0,-6.75,101.3052
2020-03-15 14:23:41.203 +0100,1949.271020625,1.1341552734375,0.566131591796875,-0.9295501708984375,1949.260971625,0.5700698596900641,0.8165091511006415,-0.5256028459160557,0.3744446337223053,2.469226598739624,2.822916507720947,0.462598443031311,0.1723748445510864,-0.2468695640563965,XArbitraryZVertical,-0.3366179951224247,0.3008623943624448,0.1502443457265933,0.8795434681742836,0.6303930282592773,0.5017345547676086,-0.5923402905464172,1918.933364875,unknown,2,2020-03-15 14:23:10.864 +0100,605971419.3351135,0,-6.75,101.3052
2020-03-15 14:23:41.218 +0100,1949.286092625,1.101425170898438,0.63006591796875,-0.8725128173828125,1949.276044625,0.5975528918570108,0.8641490917525204,-0.4921750372843173,0.2139740884304047,2.073612451553345,2.593582153320312,0.4619490504264832,0.1202671825885773,-0.3448388576507568,XArbitraryZVertical,-0.3309700049365367,0.3230294095479249,0.1617528680191925,0.87174931050948,0.6702720522880554,0.472543865442276,-0.5722216963768005,1918.933364875,unknown,2,2020-03-15 14:23:10.864 +0100,605971419.3351135,0,-6.75,101.3052
2020-03-15 14:23:41.233 +0100,1949.301164625,1.0689697265625,0.65081787109375,-0.8293304443359375,1949.291116625,0.6220200267093607,0.9039291243625195,-0.4620843210277231,0.09367856383323669,1.731022357940674,2.313757658004761,0.3980565667152405,0.1842435002326965,-0.3188610076904297,XArbitraryZVertical,-0.3262144821579543,0.3416933881543835,0.1727674422703177,0.8642807395112936,0.7033565044403076,0.4458147883415222,-0.5536594986915588,1918.933364875,unknown,2,2020-03-15 14:23:10.864 +0100,605971419.3351135,0,-6.75,101.3052
2020-03-15 14:23:41.249 +0100,1949.316236625,1.032516479492188,0.608642578125,-0.8040924072265625,1949.306188625,0.6435183827108414,0.9370125598855071,-0.4364217115842596,-0.0909140557050705,1.411657571792603,1.939743638038635,0.3507915735244751,0.2302322387695312,-0.3054341673851013,XArbitraryZVertical,-0.3226545569691176,0.3571392354756442,0.1827313173426167,0.8572950802698337,0.7302656173706055,0.4226992726325989,-0.5366911888122559,1918.933364875,unknown,2,2020-03-15 14:23:10.864 +0100,605971419.3351135,0,-6.75,101.3052
2020-03-15 14:23:41.264 +0100,1949.331308625,0.9811248779296875,0.5829620361328125,-0.8198699951171875,1949.321260625,0.6625011041262439,0.9637092296257823,-0.4168499226597608,-0.2402469217777252,1.09648072719574,1.513489961624146,0.2815200686454773,0.2037533819675446,-0.2824738025665283,XArbitraryZVertical,-0.3208461579268169,0.3691128678239258,0.1912793437376359,0.85101450444403,0.7509832978248596,0.4048821330070496,-0.521626889705658,1918.933364875,unknown,2,2020-03-15 14:23:10.864 +0100,605971419.3351135,0,-6.75,101.3052
2020-03-15 14:23:41.279 +0100,1949.346380625,0.916229248046875,0.601165771484375,-0.8365325927734375,1949.336332625,0.677854753423801,0.984106281058606,-0.4021090753686158,-0.1857922971248627,0.7997170090675354,1.165373682975769,0.23201584815979,0.1993924081325531,-0.3007233738899231,XArbitraryZVertical,-0.3199076317185907,0.3780659091889534,0.1981500198163662,0.845849774991538,0.7663533091545105,0.3913600742816925,-0.5094505548477173,1918.933364875,unknown,2,2020-03-15 14:23:10.864 +0100,605971419.3351135,0,-6.75,101.3052
2020-03-15 14:23:41.294 +0100,1949.361452625,0.86285400390625,0.5839080810546875,-0.8153228759765625,1949.351404625,0.6889849172842836,0.9985352416623512,-0.3909321213633963,-0.1580797135829926,0.5345572233200073,0.8131418824195862,0.1389625668525696,0.2201088070869446,-0.3358634114265442,XArbitraryZVertical,-0.3191121090920737,0.3844847624198536,0.2033212710970361,0.8420210691520045,0.7772530913352966,0.3810503780841827,-0.5006778836250305,1918.933364875,unknown,2,2020-03-15 14:23:10.864 +0100,605971419.3351135,0,-6.75,101.3052
2020-03-15 14:23:41.309 +0100,1949.376525625,0.8012542724609375,0.533172607421875,-0.740814208984375,1949.366476625,0.6971239083552276,1.007829295430708,-0.3841227906792487,-0.2210426032543182,0.3014941513538361,0.5016977787017822,0.09546923637390137,0.2199740409851074,-0.3370205760002136,XArbitraryZVertical,-0.3189897988816693,0.3883845898662317,0.2069660405107056,0.8393855219350479,0.7840489149093628,0.3747459948062897,-0.4948058426380157,1918.933364875,unknown,2,2020-03-15 14:23:10.864 +0100,605971419.3351135,0,-6.75,101.3052
2020-03-15 14:23:41.324 +0100,1949.391597625,0.7835540771484375,0.49957275390625,-0.707305908203125,1949.381549625,0.704397694792523,1.013379561991384,-0.3819390439273961,-0.3753514289855957,0.07179899513721466,0.224259153008461,0.01376479864120483,0.1604456901550293,-0.249944806098938,XArbitraryZVertical,-0.3201368874689,0.3899656779550108,0.2096783975362214,0.837540549656609,0.7874757051467896,0.37272047996521,-0.4908782839775085,1918.933364875,unknown,2,2020-03-15 14:23:10.864 +0100,605971419.3351135,0,-6.75,101.3052
2020-03-15 14:23:41.339 +0100,1949.406669625,0.843292236328125,0.4771728515625,-0.67919921875,1949.396621625,0.7112004812375596,1.015633602405619,-0.3832632154103698,-0.4234719574451447,-0.07908107340335846,0.09431417286396027,-0.005901575088500977,0.1291114985942841,-0.227628767490387,XArbitraryZVertical,-0.3222119517871394,0.3895622512204503,0.2118289426333144,0.8363905163067422,0.788159966468811,0.3739489316940308,-0.4888414144515991,1918.933364875,unknown,2,2020-03-15 14:23:10.864 +0100,605971419.3351135,0,-6.75,101.3052
2020-03-15 14:23:41.354 +0100,1949.421741625,0.81341552734375,0.21484375,-0.68609619140625,1949.411693625,0.7186480995657061,1.016635014778458,-0.3871965565077484,-0.644878625869751,-0.1701654493808746,-0.03289438039064407,0.05588603019714355,0.09957224130630493,-0.1919341087341309,XArbitraryZVertical,-0.3252820551328728,0.3880135540009012,0.2137848065930698,0.8354238895877483,0.7873923182487488,0.377593994140625,-0.4872741401195526,1918.933364875,unknown,2,2020-03-15 14:23:10.864 +0100,605971419.3351135,0,-6.75,101.3052
2020-03-15 14:23:41.369 +0100,1949.436813625,0.710235595703125,0.1306304931640625,-0.732879638671875,1949.426765625,0.7274126685935581,1.016071269295833,-0.3922547308248007,-0.7042821049690247,-0.340720534324646,-0.01468444988131523,0.06604951620101929,-0.05896115303039551,-0.2164130806922913,XArbitraryZVertical,-0.3288593129566062,0.3853552874465195,0.2162556909730815,0.8346174096446166,0.7854838371276855,0.382272869348526,-0.4867057204246521,1918.933364875,unknown,2,2020-03-15 14:23:10.864 +0100,605971419.3351135,0,-6.75,101.3052
2020-03-15 14:23:41.384 +0100,1949.451885625,0.7965545654296875,0.2430267333984375,-0.7314605712890625,1949.441837625,0.7373713786434339,1.013090820369575,-0.4012655143552766,-0.7526965737342834,-0.5256140232086182,-0.3049261868000031,-0.070853590965271,-0.2599600851535797,-0.2456868886947632,XArbitraryZVertical,-0.3338927997994324,0.3806766423713147,0.2186227547621076,0.8341491623477153,0.7810753583908081,0.3905836343765259,-0.4872017800807953,1918.933364875,unknown,2,2020-03-15 14:23:10.864 +0100,605971419.3351135,0,-6.75,101.3052
2020-03-15 14:23:41.399 +0100,1949.466957625,0.67919921875,0.3770294189453125,-0.591705322265625,1949.456909625,0.7416640874630738,1.00759404268546,-0.4071114003085524,-0.1602113842964172,-0.4301734864711761,-0.005433094222098589,0.07767075300216675,-0.2437437176704407,-0.2721080183982849,XArbitraryZVertical,-0.3363365971859695,0.3764936709292123,0.2198571404162879,0.834741330846545,0.7764416337013245,0.3959584832191467,-0.4902604222297668,1918.933364875,unknown,2,2020-03-15 14:23:10.864 +0100,605971419.3351135,0,-6.75,101.3052
2020-03-15 14:23:41.414 +0100,1949.482030625,0.72381591796875,0.4358062744140625,-0.514678955078125,1949.471981625,0.7429423294197316,1.001608208419799,-0.4065267848962162,0.05145665630698204,-0.4144339263439178,0.09063192456960678,-0.09450221061706543,-0.01839905977249146,-0.09669023752212524,XArbitraryZVertical,-0.3356923463600703,0.3738966338867769,0.2215438300369506,0.8357214022646207,0.7736879587173462,0.39542156457901,-0.4950239062309265,1918.933364875,unknown,2,2020-03-15 14:23:10.864 +0100,605971419.3351135,0,-6.75,101.3052
2020-03-15 14:23:41.429 +0100,1949.497102625,0.7691192626953125,0.540374755859375,-0.4361724853515625,1949.487054625,0.7403674736170125,0.9956329151232083,-0.4042298452880653,0.3999461531639099,-0.2134013175964355,0.02079338207840919,-0.07607054710388184,0.004112780094146729,-0.03305041790008545,XArbitraryZVertical,-0.3336689648806496,0.3722896633501034,0.2220425111840775,0.8371156967222182,0.7714764475822449,0.3933107852935791,-0.500130832195282,1918.933364875,unknown,2,2020-03-15 14:23:10.864 +0100,605971419.3351135,0,-6.75,101.3052
2020-03-15 14:23:41.444 +0100,1949.512174625,0.6426239013671875,0.49871826171875,-0.458831787109375,1949.502126625,0.7337961772988254,0.9913207068351608,-0.3972253835896072,0.6589600443840027,-0.04152196645736694,0.3385570347309113,-0.002493143081665039,0.1535066962242126,0.06876790523529053,XArbitraryZVertical,-0.3292711589118723,0.372969108002625,0.2217507974793185,0.8386304645788469,0.7715988159179688,0.386861264705658,-0.5049490928649902,1918.933364875,unknown,2,2020-03-15 14:23:10.864 +0100,605971419.3351135,0,-6.75,101.3052
2020-03-15 14:23:41.460 +0100,1949.527246625,0.6984710693359375,0.4795074462890625,-0.4880828857421875,1949.517198625,0.7297606494257923,0.9885982405401301,-0.3887656802984054,0.3481358885765076,-0.09668976068496704,0.3378356993198395,-0.09935683012008667,0.1448573768138885,0.07815653085708618,XArbitraryZVertical,-0.3249464070201038,0.3741593336373114,0.2226031030485535,0.8395608290137984,0.7729272246360779,0.3790464997291565,-0.5088292360305786,1918.933364875,unknown,2,2020-03-15 14:23:10.864 +0100,605971419.3351135,0,-6.75,101.3052
2020-03-15 14:23:41.475 +0100,1949.542318625,0.6827545166015625,0.5420074462890625,-0.446533203125,1949.532270625,0.7292049084402646,0.9866317996322693,-0.3833076034730004,0.1392409801483154,-0.1313587874174118,0.2164906412363052,-0.07518202066421509,0.105510801076889,0.02339011430740356,XArbitraryZVertical,-0.3225080577765785,0.3744966716191062,0.2240384648371181,0.839968792928544,0.773639440536499,0.3739900887012482,-0.5114815831184387,1918.933364875,unknown,2,2020-03-15 14:23:10.864 +0100,605971419.3351135,0,-6.75,101.3052
2020-03-15 14:23:41.490 +0100,1949.557390625,0.7139129638671875,0.4734954833984375,-0.4372100830078125,1949.547342625,0.7288651018986231,0.9845533963461351,-0.3796442735793339,0.1889475882053375,-0.1297397911548615,0.1671585142612457,-0.07809150218963623,0.1554500460624695,0.05373609066009521,XArbitraryZVertical,-0.3207892836211056,0.3743965553381043,0.2251339617479981,0.840378532684608,0.7737107872962952,0.3705900907516479,-0.5138428807258606,1918.933364875,unknown,2,2020-03-15 14:23:10.864 +0100,605971419.3351135,0,-6.75,101.3052
2020-03-15 14:23:41.505 +0100,1949.572463625,0.7314453125,0.4169464111328125,-0.4586334228515625,1949.562414625,0.7263213981073711,0.9815969178699832,-0.3756870806637216,0.3553571105003357,-0.1349076181650162,0.1164539679884911,-0.05950206518173218,0.1065772473812103,0.07972037792205811,XArbitraryZVertical,-0.3184412514644877,0.3743336461810109,0.2255108068556965,0.841198084542207,0.7734013795852661,0.366911768913269,-0.5169389843940735,1918.933364875,unknown,2,2020-03-15 14:23:10.864 +0100,605971419.3351135,0,-6.75,101.3052
2020-03-15 14:23:41.520 +0100,1949.587535625,0.7854156494140625,0.4404144287109375,-0.5106658935546875,1949.577487625,0.7228302428649488,0.9780472762046619,-0.371591510155673,0.2720862627029419,-0.1705942749977112,0.07722679525613785,-0.04506230354309082,0.05735084414482117,0.0764007568359375,XArbitraryZVertical,-0.3157907870390353,0.3741899084862157,0.2256086566769763,0.8422344299336355,0.7728015184402466,0.3630987703800201,-0.5205161571502686,1918.933364875,unknown,2,2020-03-15 14:23:10.864 +0100,605971419.3351135,0,-6.75,101.3052
2020-03-15 14:23:41.535 +0100,1949.602607625,0.7454833984375,0.494537353515625,-0.5423126220703125,1949.592559625,0.7206400290331753,0.9743230015093276,-0.3688239788205113,0.1990661472082138,-0.2193690091371536,0.1055383309721947,0.01371598243713379,0.07988929748535156,0.01327884197235107,XArbitraryZVertical,-0.31387922173272,0.3735013671943433,0.2259482345543941,0.8431630032275379,0.7716859579086304,0.360518753528595,-0.5239531397819519,1918.933364875,unknown,2,2020-03-15 14:23:10.864 +0100,605971419.3351135,0,-6.75,101.3052
2020-03-15 14:23:41.550 +0100,1949.617679625,0.7833404541015625,0.47442626953125,-0.578094482421875,1949.607631625,0.7176844291655488,0.9697783118926668,-0.3658143849999743,0.4075304269790649,-0.1868534237146378,0.08160640299320221,-0.00956648588180542,0.1160386204719543,-0.007022321224212646,XArbitraryZVertical,-0.311634919468741,0.3726267574254847,0.2261444381418198,0.8443290801458737,0.7701882123947144,0.3577099144458771,-0.5280659794807434,1918.933364875,unknown,2,2020-03-15 14:23:10.864 +0100,605971419.3351135,0,-6.75,101.3052
2020-03-15 14:23:41.565 +0100,1949.632751625,0.8225860595703125,0.3977813720703125,-0.6465301513671875,1949.622703625,0.7119612043842813,0.9654288671597152,-0.3651391640210982,0.4603157341480255,-0.1609369218349457,-0.04458635300397873,0.01524430513381958,0.1173407137393951,-0.0465545654296875,XArbitraryZVertical,-0.3098143519915258,0.3718077199824188,0.2245656236109901,0.845780302094666,0.7680826187133789,0.3570792973041534,-0.5315482020378113,1918.933364875,unknown,2,2020-03-15 14:23:10.864 +0100,605971419.3351135,0,-6.75,101.3052
2020-03-15 14:23:41.580 +0100,1949.647823625,0.765960693359375,0.4233856201171875,-0.67864990234375,1949.637775625,0.706089460171315,0.9607523047180834,-0.3647070531691377,0.3257213532924652,-0.2347510755062103,-0.1011931747198105,0.04980820417404175,0.0385664701461792,-0.09858983755111694,XArbitraryZVertical,-0.3080307852254255,0.3708176168331818,0.2229069727090668,0.8473037767604821,0.7657147645950317,0.3566756248474121,-0.5352226495742798,1918.933364875,unknown,2,2020-03-15 14:23:10.864 +0100,605971419.3351135,0,-6.75,101.3052
2020-03-15 14:23:41.595 +0100,1949.662895625,0.7862701416015625,0.4453125,-0.6247711181640625,1949.652847625,0.7009597859584846,0.9553705867270457,-0.3653014578573767,0.3986349701881409,-0.3304384350776672,-0.1122162640094757,0.003297269344329834,0.06614857912063599,-0.1394446492195129,XArbitraryZVertical,-0.3067188409350421,0.3692111891282077,0.2214159158909871,0.8488708140810407,0.7626500725746155,0.3572308719158173,-0.5392132997512817,1918.933364875,unknown,2,2020-03-15 14:23:10.864 +0100,605971419.3351135,0,-6.75,101.3052
2020-03-15 14:23:41.610 +0100,1949.677968625,0.76031494140625,0.4308624267578125,-0.5738677978515625,1949.667920625,0.6939410397452348,0.9481079085249262,-0.3629206516373779,0.5207262635231018,-0.3409906923770905,-0.1024970561265945,0.01968264579772949,0.08108389377593994,-0.1088739633560181,XArbitraryZVertical,-0.303679923768727,0.367644257786206,0.2201109944845022,0.8509802615136668,0.7594025731086731,0.3550061583518982,-0.5452324151992798,1918.933364875,unknown,2,2020-03-15 14:23:10.864 +0100,605971419.3351135,0,-6.75,101.3052
2020-03-15 14:23:41.625 +0100,1949.693040625,0.768524169921875,0.406890869140625,-0.559539794921875,1949.682992625,0.6854452762885195,0.9402263150421332,-0.3601473338286394,0.6668543219566345,-0.3345870673656464,-0.1138269156217575,0.004427731037139893,0.07844418287277222,-0.02209651470184326,XArbitraryZVertical,-0.3001526012550089,0.3660859160476621,0.2183396984766038,0.8533564154103567,0.75587397813797,0.3524121046066284,-0.55177903175354,1918.933364875,unknown,2,2020-03-15 14:23:10.864 +0100,605971419.3351135,0,-6.75,101.3052
2020-03-15 14:23:41.640 +0100,1949.708112625,0.758148193359375,0.3377227783203125,-0.5930938720703125,1949.698064625,0.6745753259888685,0.9319207229620639,-0.3551201347911865,0.8512921333312988,-0.2506761252880096,-0.0793561190366745,0.004862129688262939,0.0691152811050415,0.0002112388610839844,XArbitraryZVertical,-0.295249636312216,0.3650808104062509,0.2161157432548703,0.8560593577427851,0.752677857875824,0.3477030098438263,-0.559087336063385,1918.933364875,unknown,2,2020-03-15 14:23:10.864 +0100,605971419.3351135,0,-6.75,101.3052
2020-03-15 14:23:41.656 +0100,1949.723184625,0.7452239990234375,0.2378387451171875,-0.665863037109375,1949.713136625,0.6623371747560377,0.9240519026257858,-0.3486380535759453,0.9203566312789917,-0.2363973259925842,-0.08988332748413086,0.008096933364868164,-0.003901273012161255,-0.02676248550415039,XArbitraryZVertical,-0.2895592340557107,0.3646724597379419,0.2135348793490685,0.8588202954910957,0.750038206577301,0.3416181206703186,-0.5663388967514038,1918.933364875,unknown,2,2020-03-15 14:23:10.864 +0100,605971419.3351135,0,-6.75,101.3052
2020-03-15 14:23:41.671 +0100,1949.738255916667,0.776153564453125,0.215087890625,-0.6633148193359375,1949.728207916667,0.6503397448534188,0.9163610620868697,-0.3415597610682469,0.8003100156784058,-0.2604898810386658,-0.06508401036262512,-0.003173410892486572,-0.07216092944145203,-0.07700264453887939,XArbitraryZVertical,-0.28368580662242,0.3643464454957125,0.2111182159045706,0.8615120841154499,0.7475602030754089,0.3349571526050568,-0.5735480785369873,1918.933364875,unknown,2,2020-03-15 14:23:10.864 +0100,605971419.3351135,0,-6.75,101.3052
2020-03-15 14:23:41.686 +0100,1949.753327916667,0.806304931640625,0.265289306640625,-0.6016387939453125,1949.743279916667,0.6411468357360584,0.9081062175827039,-0.3370675073811337,0.4919887781143188,-0.362425297498703,-0.09600380808115005,0.03216147422790527,-0.1156389713287354,-0.0827028751373291,XArbitraryZVertical,-0.2793149160916868,0.3628684453010418,0.2093472548542615,0.8639926460792207,0.7439789772033691,0.3307210505008698,-0.5806193351745605,1918.933364875,unknown,2,2020-03-15 14:23:10.864 +0100,605971419.3351135,0,-6.75,101.3052
2020-03-15 14:23:41.701 +0100,1949.768400916667,0.85052490234375,0.4249420166015625,-0.5804901123046875,1949.758351916667,0.6357739849760826,0.9003436879069789,-0.3344368150340205,0.348521500825882,-0.4399712383747101,-0.02946352958679199,0.05665695667266846,-0.07752582430839539,-0.02423679828643799,XArbitraryZVertical,-0.2764541937724695,0.3607150056249397,0.2087020650157914,0.8659683665011499,0.7401286959648132,0.3282372355461121,-0.5869155526161194,1918.933364875,unknown,2,2020-03-15 14:23:10.864 +0100,605971419.3351135,0,-6.75,101.3052
2020-03-15 14:23:41.716 +0100,1949.783472916667,0.83880615234375,0.4480438232421875,-0.5460662841796875,1949.773424916667,0.628656444827434,0.8924207275511975,-0.3303525610186932,0.7822196483612061,-0.2679755091667175,-0.08362450450658798,0.1140188574790955,0.1005597710609436,0.01310014724731445,XArbitraryZVertical,-0.2726693266255159,0.3589606528667135,0.2076282038993778,0.8681527603614729,0.7364930510520935,0.3243765532970428,-0.5935973525047302,1918.933364875,unknown,2,2020-03-15 14:23:10.864 +0100,605971419.3351135,0,-6.75,101.3052
2020-03-15 14:23:41.731 +0100,1949.798544916667,0.812957763671875,0.273406982421875,-0.5967864990234375,1949.788496916667,0.6140077027591978,0.8854885063220116,-0.3213607213087719,1.309633731842041,-0.03303930908441544,-0.157525047659874,0.1374530792236328,0.1666499674320221,0.05524587631225586,XArbitraryZVertical,-0.2656068681895998,0.3594409166836222,0.204209680340913,0.8709498862106326,0.7345890402793884,0.3158579170703888,-0.6005104184150696,1918.933364875,unknown,2,2020-03-15 14:23:10.864 +0100,605971419.3351135,0,-6.75,101.3052
2020-03-15 14:23:41.746 +0100,1949.813616916667,0.6641693115234375,0.254730224609375,-0.668731689453125,1949.803568916667,0.5950360232868737,0.8788775730790428,-0.3105231433783066,1.419774651527405,-0.1012181267142296,-0.2696370780467987,0.07974863052368164,-0.03215527534484863,0.0107085108757019,XArbitraryZVertical,-0.2570124635365065,0.3608234823122084,0.1992072500344925,0.8741095719905064,0.7331960201263428,0.3055568039417267,-0.6075020432472229,1918.933364875,unknown,2,2020-03-15 14:23:10.864 +0100,605971419.3351135,0,-6.75,101.3052
2020-03-15 14:23:41.761 +0100,1949.828688916667,0.7609100341796875,0.3204345703125,-0.634246826171875,1949.818640916667,0.5744823137967306,0.8699600633186021,-0.2993411754857407,1.457635641098022,-0.227889209985733,-0.2638067603111267,-0.04551398754119873,-0.04294288158416748,-0.05438876152038574,XArbitraryZVertical,-0.2477354073508534,0.3612986677418898,0.1937926777728771,0.8778010796257021,0.7303153276443481,0.2948907315731049,-0.6161808967590332,1918.933364875,unknown,2,2020-03-15 14:23:10.864 +0100,605971419.3351135,0,-6.75,101.3052
2020-03-15 14:23:41.776 +0100,1949.843760916667,0.7216339111328125,0.3486175537109375,-0.5690460205078125,1949.833712916667,0.5547187784379813,0.8602530370433293,-0.2877365839553013,1.473982214927673,-0.278395026922226,-0.2071533203125,0.03405213356018066,0.03664696216583252,-0.00882256031036377,XArbitraryZVertical,-0.2383309770775034,0.3612241044484883,0.1888051144171696,0.8815146730276389,0.7268449068069458,0.2837826013565063,-0.6254310011863708,1918.933364875,unknown,2,2020-03-15 14:23:10.864 +0100,605971419.3351135,0,-6.75,101.3052
2020-03-15 14:23:41.791 +0100,1949.858833916667,0.43939208984375,0.2421875,-0.6341705322265625,1949.848784916667,0.5338165316411795,0.8501727157744788,-0.2753176207115323,1.597701549530029,-0.4144246578216553,-0.350953072309494,0.01807141304016113,0.07251816987991333,0.04322969913482666,XArbitraryZVertical,-0.22832693433565,0.3610616783254262,0.1834170015095357,0.8853583380407858,0.7230960130691528,0.2718526124954224,-0.6350025534629822,1918.933364875,unknown,2,2020-03-15 14:23:10.864 +0100,605971419.3351135,0,-6.75,101.3052
2020-03-15 14:23:41.806 +0100,1949.873905916667,0.8711395263671875,0.3741607666015625,-0.666839599609375,1949.863857916667,0.524443453834806,0.8367367582932332,-0.2594371851853887,1.259725213050842,-0.6111679077148438,1.120001435279846,-0.2782348394393921,-0.01435363292694092,0.01329433917999268,XArbitraryZVertical,-0.2185895006594643,0.3584453976859129,0.184122675274601,0.8887262712971825,0.7176142334938049,0.256536602973938,-0.6474710702896118,1918.933364875,unknown,2,2020-03-15 14:23:10.864 +0100,605971419.3351135,0,-6.75,101.3052
2020-03-15 14:23:41.821 +0100,1949.888977916667,0.6444244384765625,0.2309722900390625,-0.69171142578125,1949.878929916667,0.5174802002217669,0.8269715846573815,-0.2434544914703544,0.8999209403991699,-0.4854151606559753,-0.2129019945859909,0.4180516004562378,-0.1337305903434753,0.04878157377243042,XArbitraryZVertical,-0.2095383031896893,0.3571044297253158,0.1854007155609863,0.8911771931604568,0.7141837477684021,0.2410566806793213,-0.6571402549743652,1918.933364875,unknown,2,2020-03-15 14:23:10.864 +0100,605971419.3351135,0,-6.75,101.3052
2020-03-15 14:23:41.836 +0100,1949.904049916667,0.697357177734375,0.3931884765625,-0.6782989501953125,1949.894001916667,0.5071236494400942,0.8154959074015079,-0.2376392127927253,0.7115459442138672,-0.6207730174064636,-0.1954838484525681,-0.06319248676300049,-0.004440709948539734,-0.02547508478164673,XArbitraryZVertical,-0.2041150697452892,0.3538586243559596,0.1831605915106367,0.8941886413591138,0.7076044082641602,0.2354088425636292,-0.666242241859436,1918.933364875,unknown,2,2020-03-15 14:23:10.864 +0100,605971419.3351135,0,-6.75,101.3052
2020-03-15 14:23:41.852 +0100,1949.919121916667,0.6757354736328125,0.3395538330078125,-0.702423095703125,1949.909073916667,0.4935954522411127,0.80511029635788,-0.2326619123654347,0.9633392095565796,-0.3689147531986237,-0.4142562448978424,-0.05955833196640015,0.06505115330219269,-0.01888442039489746,XArbitraryZVertical,-0.1986174323592561,0.3512431576379808,0.1791576798330238,0.8972635017934941,0.7014830112457275,0.230568528175354,-0.6743587255477905,1918.933364875,unknown,2,2020-03-15 14:23:10.864 +0100,605971419.3351135,0,-6.75,101.3052
2020-03-15 14:23:41.867 +0100,1949.934193916667,0.714935302734375,0.3791046142578125,-0.6680755615234375,1949.924145916667,0.4760882761473814,0.7964994651942515,-0.2259881918175587,1.3875892162323,-0.2180703580379486,-0.5865102410316467,-0.02101176977157593,0.1154803484678268,-0.02099394798278809,XArbitraryZVertical,-0.1918614406386424,0.3499597058380446,0.1734691917500293,0.9003476417271191,0.6967349052429199,0.2240695357322693,-0.6814348101615906,1918.933364875,unknown,2,2020-03-15 14:23:10.864 +0100,605971419.3351135,0,-6.75,101.3052
2020-03-15 14:23:41.882 +0100,1949.949265916667,0.7053375244140625,0.2351531982421875,-0.689849853515625,1949.939217916667,0.4516758969051263,0.7890999821415496,-0.215543938766635,1.790385723114014,-0.06128322333097458,-0.614316999912262,-0.004191577434539795,0.1846464872360229,0.01311314105987549,XArbitraryZVertical,-0.1823528440275611,0.3502228895958447,0.165222980484347,0.9037658642272201,0.6932967305183411,0.2138788104057312,-0.6881827116012573,1918.933364875,unknown,2,2020-03-15 14:23:10.864 +0100,605971419.3351135,0,-6.75,101.3052
2020-03-15 14:23:41.897 +0100,1949.964338916667,0.698944091796875,0.2034454345703125,-0.7143707275390625,1949.954290916667,0.4260291168640165,0.7826312585635985,-0.2024847412196457,1.726096272468567,-0.1220693439245224,-0.5063047409057617,0.01458412408828735,0.03404578566551208,0.004719257354736328,XArbitraryZVertical,-0.1715366713551195,0.351123871574593,0.1567487509489532,0.9070374893147881,0.6907413601875305,0.2011039257049561,-0.6945744156837463,1918.933364875,unknown,2,2020-03-15 14:23:10.864 +0100,605971419.3351135,0,-6.75,101.3052
2020-03-15 14:23:41.912 +0100,1949.979410916667,0.6932525634765625,0.2969818115234375,-0.66094970703125,1949.969362916667,0.401958698056618,0.7758600385732445,-0.1890426610232817,1.805460929870605,-0.131345734000206,-0.4855244159698486,0.01286381483078003,0.00433880090713501,-0.01721066236495972,XArbitraryZVertical,-0.160786233819907,0.3515633311326558,0.1489875073046064,0.9101394423613186,0.6878535747528076,0.1879186928272247,-0.7011020183563232,1918.933364875,unknown,2,2020-03-15 14:23:10.864 +0100,605971419.3351135,0,-6.75,101.3052
2020-03-15 14:23:41.927 +0100,1949.994482916667,0.6817474365234375,0.2569732666015625,-0.6597900390625,1949.984434916667,0.3757277086617816,0.7695894441749341,-0.1725923899209834,2.153389930725098,-0.08370035886764526,-0.4462662935256958,0.007738351821899414,0.1252420395612717,0.04657125473022461,XArbitraryZVertical,-0.1483243252286888,0.352472492781994,0.1406763366793271,0.9132213325078373,0.6855022311210632,0.1717367917299271,-0.7075260877609253,1918.933364875,unknown,2,2020-03-15 14:23:10.864 +0100,605971419.3351135,0,-6.75,101.3052
2020-03-15 14:23:41.945 +0100,1950.009554916667,0.6993865966796875,0.1103668212890625,-0.7386016845703125,1949.999506916667,0.3467538953382669,0.7637829738913341,-0.1525987681431408,2.342479944229126,-0.08798150718212128,-0.4605280756950378,-0.004845619201660156,0.1371137499809265,0.06146812438964844,XArbitraryZVertical,-0.1337769480010773,0.3538187786967354,0.1316350391938874,0.9162905605305174,0.6836211085319519,0.152007207274437,-0.7138320207595825,1918.933364875,unknown,2,2020-03-15 14:23:10.864 +0100,605971419.3351135,0,-6.75,101.3052
2020-03-15 14:23:41.957 +0100,1950.024626916667,0.5150299072265625,-0.1815338134765625,-0.7174072265625,1950.014578916667,0.3165699781144513,0.7576367934306634,-0.1300623168287533,2.580080509185791,-0.1735829561948776,-0.2881943881511688,0.01797258853912354,-0.01933130621910095,-0.0182802677154541,XArbitraryZVertical,-0.1177932948230315,0.3549107263869574,0.1224074302980395,0.9193365110065791,0.681402325630188,0.129695937037468,-0.7203262448310852,1918.933364875,unknown,2,2020-03-15 14:23:10.864 +0100,605971419.3351135,0,-6.75,101.3052
2020-03-15 14:23:41.972 +0100,1950.039698916667,0.8168487548828125,0.2686920166015625,-0.601409912109375,1950.029650916667,0.2857343536621938,0.7501216039170977,-0.09923230665342239,3.275893449783325,-0.2403182089328766,0.1054944843053818,-0.07174199819564819,-0.201762855052948,-0.009760260581970215,XArbitraryZVertical,-0.09777235655109205,0.3555800066339087,0.1143377292513484,0.9224588454249534,0.6783739924430847,0.09906952828168869,-0.7280068397521973,1918.933364875,unknown,2,2020-03-15 14:23:10.864 +0100,605971419.3351135,0,-6.75,101.3052
2020-03-15 14:23:41.987 +0100,1950.054771916667,0.984649658203125,0.11077880859375,-0.5876007080078125,1950.044723916667,0.2453060525959932,0.7483447352380626,-0.0629857021402004,3.584369659423828,0.3717586994171143,-0.6661738753318787,0.1377596259117126,0.2057469040155411,0.1299484968185425,XArbitraryZVertical,-0.07378431905481321,0.3589907583511032,0.1024018683550445,0.9247677200986533,0.6790774464607239,0.06294406205415726,-0.7313629984855652,1918.933364875,unknown,2,2020-03-15 14:23:10.864 +0100,605971419.3351135,0,-6.75,101.3052
2020-03-15 14:23:42.002 +0100,1950.069843916667,0.7048187255859375,-0.2900848388671875,-0.6957244873046875,1950.059795916667,0.2066188302525762,0.7504786836717389,-0.03602553849060421,2.642092943191528,0.1738630384206772,-0.6410394310951233,0.3776459693908691,0.282814085483551,0.1698787212371826,XArbitraryZVertical,-0.05445814559937226,0.3627538233511298,0.08936864277123054,0.9259898499249632,0.6815463900566101,0.03601774573326111,-0.7308879494667053,1918.933364875,unknown,2,2020-03-15 14:23:10.864 +0100,605971419.3351135,0,-6.75,101.3052
2020-03-15 14:23:42.017 +0100,1950.084915916667,0.70947265625,-0.0817413330078125,-0.6753082275390625,1950.074867916667,0.1766560104520601,0.7488182559352863,-0.01904703414837846,1.745745420455933,-0.1545246988534927,-0.5270643830299377,0.02415692806243896,-0.3091310262680054,0.03663194179534912,XArbitraryZVertical,-0.0410891797752756,0.3634985218856286,0.07862907055593722,0.9273607401918756,0.6806501150131226,0.0190458819270134,-0.7323610186576843,1918.933364875,unknown,2,2020-03-15 14:23:10.864 +0100,605971419.3351135,0,-6.75,101.3052
2020-03-15 14:23:42.032 +0100,1950.099987916667,0.607696533203125,-0.1277008056640625,-0.678619384765625,1950.089939916667,0.1575135424007047,0.7454548446340088,-0.009345755758317552,1.02396833896637,-0.1731545925140381,-0.47014981508255,0.07860881090164185,-0.1912457644939423,0.04686141014099121,XArbitraryZVertical,-0.03298839007897612,0.3626817823113235,0.07157615759491739,0.9285745133261121,0.6782764792442322,0.009345619939267635,-0.7347474098205566,1918.933364875,unknown,2,2020-03-15 14:23:10.864 +0100,605971419.3351135,0,-6.75,101.3052
2020-03-15 14:23:42.048 +0100,1950.115059916667,0.685577392578125,-0.1520843505859375,-0.6649932861328125,1950.105011916667,0.146345509729039,0.7435118796644764,-0.005209048290914551,0.4222866892814636,-0.01212325599044561,-0.2723022997379303,-0.0691831111907959,-0.1329098790884018,0.05746209621429443,XArbitraryZVertical,-0.02897646339301172,0.3621013248488765,0.06716977639696325,0.9292637622748718,0.6768679618835449,0.005209024529904127,-0.7360860109329224,1918.933364875,unknown,2,2020-03-15 14:23:10.864 +0100,605971419.3351135,0,-6.75,101.3052
2020-03-15 14:23:42.062 +0100,1950.130131916667,0.669647216796875,-0.242218017578125,-0.6034088134765625,1950.120083916667,0.1422220412165251,0.7472688814646252,-0.005952104862499641,-0.1757843643426895,0.514380156993866,-0.265178918838501,0.003528952598571777,-0.1251537948846817,0.05730640888214111,XArbitraryZVertical,-0.02869736285480391,0.3638805644441987,0.06506525817359606,0.9287270702771058,0.6796258687973022,0.005952069535851479,-0.7335348129272461,1918.933364875,unknown,2,2020-03-15 14:23:10.864 +0100,605971419.3351135,0,-6.75,101.3052
2020-03-15 14:23:42.078 +0100,1950.145204916667,0.8509674072265625,-0.57135009765625,-0.547393798828125,1950.135156916667,0.1460520276362365,0.7608012796386291,-0.01547268229674942,-1.380428791046143,1.025750517845154,-0.0576116107404232,-0.01978409290313721,-0.2576903104782104,0.1207834482192993,XArbitraryZVertical,-0.03425321209083843,0.3697677611532608,0.0648787830511267,0.9262230572145802,0.6894194483757019,0.01547206472605467,-0.7241970300674438,1918.933364875,unknown,2,2020-03-15 14:23:10.864 +0100,605971419.3351135,0,-6.75,101.3052
2020-03-15 14:23:42.093 +0100,1950.160276916667,1.220855712890625,-0.8520965576171875,-0.5852203369140625,1950.150228916667,0.1835941590230737,0.7648088006859177,-0.04803212498592446,-5.817001819610596,-1.164640665054321,0.6204920411109924,0.09195709228515625,-0.4751842319965363,0.152593195438385,XArbitraryZVertical,-0.05638177163819059,0.3694316971583494,0.07609943974549821,0.9244188805241526,0.691600501537323,0.04801365733146667,-0.7206826210021973,1918.933364875,unknown,2,2020-03-15 14:23:10.864 +0100,605971419.3351135,0,-6.75,101.3052
2020-03-15 14:23:42.108 +0100,1950.175348916667,0.5077667236328125,0.1811065673828125,-0.3572998046875,1950.165300916667,0.2768943014487843,0.7352389421538502,-0.1305703968582263,-9.314386367797852,-2.505960702896118,1.201907277107239,0.555789589881897,-0.9822984933853149,0.1501323580741882,XArbitraryZVertical,-0.1097901569389375,0.346796054888841,0.1052880293387868,0.9255230949619199,0.6650546789169312,0.1301997005939484,-0.7353572249412537,1918.933364875,unknown,2,2020-03-15 14:23:10.864 +0100,605971419.3351135,0,-6.75,101.3052
2020-03-15 14:23:42.123 +0100,1950.190420916667,0.451934814453125,0.5525665283203125,-0.2329254150390625,1950.180372916667,0.3947561283065817,0.7211567963553088,-0.2406933718567024,-11.55129814147949,-2.119626522064209,0.4641410112380981,0.0496099591255188,-0.5409924387931824,0.3545705080032349,XArbitraryZVertical,-0.1788411676953555,0.3214339797972018,0.1406259254381847,0.9191954336860522,0.6412206888198853,0.2383760660886765,-0.7293920516967773,1918.933364875,unknown,2,2020-03-15 14:23:10.864 +0100,605971419.3351135,0,-6.75,101.3052
2020-03-15 14:23:42.138 +0100,1950.205492916667,0.4439544677734375,0.5433197021484375,-0.2833099365234375,1950.195444916667,0.5187573760910624,0.7344434440880123,-0.3701927972986195,-11.56839656829834,-1.226513028144836,0.07455038279294968,-0.1728509068489075,0.1907651424407959,0.4589945077896118,XArbitraryZVertical,-0.2565346804213854,0.2970309093143819,0.1714262206399088,0.9036457508769903,0.6247749924659729,0.36179518699646,-0.6919251680374146,1918.933364875,unknown,2,2020-03-15 14:23:10.864 +0100,605971419.3351135,0,-6.75,101.3052
2020-03-15 14:23:42.153 +0100,1950.220564916667,0.712371826171875,0.13140869140625,-0.1619720458984375,1950.210516916667,0.6592981361437028,0.7762511194420729,-0.5014688264342702,-12.94795703887939,-1.335253596305847,0.3926641643047333,-0.2250005602836609,0.2115689218044281,0.3685897588729858,XArbitraryZVertical,-0.3359737530411655,0.2725360067802618,0.2014196699384955,0.8787922526035842,0.6143485307693481,0.4807140231132507,-0.6256915330886841,1918.933364875,unknown,2,2020-03-15 14:23:10.864 +0100,605971419.3351135,0,-6.75,101.3052
2020-03-15 14:23:42.168 +0100,1950.235637916667,0.60980224609375,0.191375732421875,0.15765380859375,1950.225589916667,0.8504363073313056,0.8517685388382443,-0.6433970737768478,-15.22138595581055,-2.381522178649902,1.017204880714417,0.1103573441505432,-0.4685183763504028,0.3649836778640747,XArbitraryZVertical,-0.4239742934813611,0.2382516793556952,0.2374091241512595,0.8409035933898752,0.6020041108131409,0.5999167561531067,-0.5269638895988464,1918.933364875,unknown,2,2020-03-15 14:23:10.864 +0100,605971419.3351135,0,-6.75,101.3052
2020-03-15 14:23:42.183 +0100,1950.250709916667,0.6312713623046875,1.268798828125,0.2862091064453125,1950.240661916667,1.09915082357464,0.9846991090863147,-0.7694221811238663,-14.79772663116455,-1.347785949707031,0.06527410447597504,0.04847097396850586,-0.5460283160209656,0.5593467354774475,XArbitraryZVertical,-0.5108719894231984,0.2008867104023598,0.2753654589576137,0.7891945920058052,0.5984303951263428,0.6957203149795532,-0.3973086774349213,1918.933364875,unknown,2,2020-03-15 14:23:10.864 +0100,605971419.3351135,0,-6.75,101.3052
2020-03-15 14:23:42.198 +0100,1950.265781916667,0.6339263916015625,1.109024047851562,0.29766845703125,1950.255733916667,1.40350401763198,1.188279074042042,-0.891718904499447,-16.8426399230957,-1.750184535980225,-0.8529797792434692,0.04857838153839111,0.4906328320503235,0.5206294059753418,XArbitraryZVertical,-0.5989514821422502,0.1550496678959895,0.2982712857438478,0.7268086412099746,0.5826829075813293,0.7781525254249573,-0.2344334423542023,1918.933364875,unknown,2,2020-03-15 14:23:10.864 +0100,605971419.3351135,0,-6.75,101.3052
2020-03-15 14:23:42.214 +0100,1950.280853916667,0.4754486083984375,1.140960693359375,0.2129364013671875,1950.270805916667,1.806562820311739,1.486135801233891,-0.957054536917596,-16.00068855285645,-1.548509240150452,-0.2267715632915497,0.1036584973335266,0.3920974135398865,0.3830653429031372,XArbitraryZVertical,-0.6815633341524024,0.105457307662763,0.3205257426518254,0.6493177189926896,0.5738677978515625,0.8174987435340881,-0.04870035499334335,1918.933364875,unknown,2,2020-03-15 14:23:10.864 +0100,605971419.3351135,0,-6.75,101.3052
2020-03-15 14:23:42.228 +0100,1950.295925916667,0.6314544677734375,0.829315185546875,0.000946044921875,1950.285877916667,2.191692249521239,1.783403190746708,-0.9471963809073227,-13.19688892364502,-0.7999410033226013,-0.3229153752326965,-0.09537398815155029,0.3291654586791992,0.08969640731811523,XArbitraryZVertical,-0.746844722531436,0.06191484486510748,0.33479372804046,0.5712291122915077,0.570813000202179,0.8117814660072327,0.1232209727168083,1918.933364875,unknown,2,2020-03-15 14:23:10.864 +0100,605971419.3351135,0,-6.75,101.3052
2020-03-15 14:23:42.244 +0100,1950.310998916667,0.679595947265625,0.7586212158203125,0.0072479248046875,1950.300949916667,2.458296579681777,1.988704628814839,-0.8976128366307193,-9.040288925170898,-0.268053412437439,-0.03812945634126663,0.01227617263793945,0.1482759118080139,-0.2075426578521729,XArbitraryZVertical,-0.7909510871159902,0.03025913854656491,0.3408061959980602,0.5072790286620191,0.5698217153549194,0.7818408012390137,0.2530384659767151,1918.933364875,unknown,2,2020-03-15 14:23:10.864 +0100,605971419.3351135,0,-6.75,101.3052
2020-03-15 14:23:42.259 +0100,1950.326070916667,0.6588287353515625,0.9504241943359375,0.06982421875,1950.316022916667,2.600061281457022,2.098066442212621,-0.8485477711673415,-4.586999893188477,0.3226110339164734,0.3043387532234192,0.1082971692085266,0.008287310600280762,-0.3254110813140869,XArbitraryZVertical,-0.816169492813187,0.01362177914377777,0.3422148883547582,0.4653716689102282,0.5712890625,0.7503211498260498,0.3326363861560822,1918.933364875,unknown,2,2020-03-15 14:23:10.864 +0100,605971419.3351135,0,-6.75,101.3052
2020-03-15 14:23:42.274 +0100,1950.341142916667,0.58245849609375,1.134002685546875,0.216827392578125,1950.331094916667,2.640771135854515,2.136371766841023,-0.8254762990119726,-0.1765992790460587,0.706411600112915,0.386426568031311,0.1108651161193848,0.1135203242301941,-0.3027609586715698,XArbitraryZVertical,-0.8255838589748026,0.01172187598870878,0.3403951600682572,0.4498943544972151,0.5725967288017273,0.7348709106445312,0.3634522259235382,1918.933364875,unknown,2,2020-03-15 14:23:10.864 +0100,605971419.3351135,0,-6.75,101.3052
2020-03-15 14:23:42.289 +0100,1950.356214916667,0.6641082763671875,0.935394287109375,0.4547271728515625,1950.346166916667,2.602593887121026,2.121196926800503,-0.8342504269912685,3.550846576690674,1.014986753463745,0.4659667611122131,0.009920477867126465,0.393196702003479,-0.1345314979553223,XArbitraryZVertical,-0.8217033064312009,0.02171432653512357,0.3362321444728913,0.4596521092762265,0.5725281834602356,0.7407932281494141,0.3513356745243073,1918.933364875,unknown,2,2020-03-15 14:23:10.864 +0100,605971419.3351135,0,-6.75,101.3052
2020-03-15 14:23:42.304 +0100,1950.371286916667,0.7286376953125,0.638153076171875,0.68988037109375,1950.361238916667,2.500276589251655,2.061629919258495,-0.8650256317297154,6.050168991088867,1.264288067817688,0.4837369918823242,0.06573253870010376,0.2683549523353577,0.06248342990875244,XArbitraryZVertical,-0.8069642127892671,0.04093947236728383,0.3296687990118308,0.4883146055513411,0.5720445513725281,0.7611119151115417,0.3057345747947693,1918.933364875,unknown,2,2020-03-15 14:23:10.864 +0100,605971419.3351135,0,-6.75,101.3052
2020-03-15 14:23:42.319 +0100,1950.386358916667,0.7119293212890625,0.77252197265625,0.60784912109375,1950.376310916667,2.351161899821005,1.968456640527624,-0.9004639691169155,7.122817039489746,1.689231872558594,0.6324310898780823,0.1558573842048645,-0.1454756855964661,0.4492737054824829,XArbitraryZVertical,-0.78478315885323,0.06639340302635124,0.3203920912206021,0.5263613689275595,0.5727704763412476,0.7836152315139771,0.2405853867530823,1918.933364875,unknown,2,2020-03-15 14:23:10.864 +0100,605971419.3351135,0,-6.75,101.3052
2020-03-15 14:23:42.334 +0100,1950.401431916667,0.7131195068359375,0.816375732421875,0.1084747314453125,1950.391382916667,2.18097251405635,1.862109018258095,-0.9276485982899099,6.922759056091309,1.948586940765381,0.5495975017547607,0.1347077488899231,-0.08078926801681519,0.5041112899780273,XArbitraryZVertical,-0.7597112895574547,0.09466309238277415,0.3076707437987061,0.5649923320245588,0.5744497179985046,0.8002119660377502,0.1722446829080582,1918.933364875,unknown,2,2020-03-15 14:23:10.864 +0100,605971419.3351135,0,-6.75,101.3052
2020-03-15 14:23:42.349 +0100,1950.416503916667,0.747283935546875,0.8890838623046875,-0.19903564453125,1950.406455916667,2.017114166792957,1.75717179346524,-0.9455972123636879,5.996426105499268,1.696694731712341,0.1979886442422867,0.1379860043525696,0.005514979362487793,7.867813110351562e-06,XArbitraryZVertical,-0.734814237723995,0.1194645798867806,0.2938718257469604,0.5995128464407337,0.5751234889030457,0.8108466267585754,0.1084474995732307,1918.933364875,unknown,2,2020-03-15 14:23:10.864 +0100,605971419.3351135,0,-6.75,101.3052
2020-03-15 14:23:42.364 +0100,1950.431575916667,0.7574310302734375,0.8194732666015625,-0.3671417236328125,1950.421527916667,1.88435351897067,1.672496184776234,-0.956423490351193,4.137447834014893,1.203243970870972,-0.1936403810977936,0.1548851728439331,0.05934572219848633,-0.188379168510437,XArbitraryZVertical,-0.7143033419420346,0.1379582573367399,0.2804844310283303,0.6261523415254056,0.5734677314758301,0.8171351552009583,0.05852349102497101,1918.933364875,unknown,2,2020-03-15 14:23:10.864 +0100,605971419.3351135,0,-6.75,101.3052
2020-03-15 14:23:42.379 +0100,1950.446647916667,0.7668609619140625,0.5939483642578125,-0.3742828369140625,1950.436599916667,1.811420509817206,1.625222850662685,-0.9651250539080909,1.551660299301147,0.6978012919425964,-0.4047086834907532,0.1889500021934509,-0.002661466598510742,-0.3981305360794067,XArbitraryZVertical,-0.7030041082282941,0.1458439784470206,0.2713328347180133,0.6410095100696004,0.5684709548950195,0.8221201300621033,0.03097048401832581,1918.933364875,unknown,2,2020-03-15 14:23:10.864 +0100,605971419.3351135,0,-6.75,101.3052
2020-03-15 14:23:42.394 +0100,1950.461719916667,0.71844482421875,0.5881500244140625,-0.23114013671875,1950.451671916667,1.791220032247967,1.617051228373101,-0.9708658169925972,0.2695205211639404,0.3769578039646149,-0.2999985218048096,0.1893962621688843,-0.1524160504341125,-0.3703012466430664,XArbitraryZVertical,-0.7007498344429159,0.1483321380672161,0.2658401049299954,0.6451946671164329,0.5639810562133789,0.8253748416900635,0.02610550820827484,1918.933364875,unknown,2,2020-03-15 14:23:10.864 +0100,605971419.3351135,0,-6.75,101.3052
2020-03-15 14:23:42.409 +0100,1950.476791916667,0.7579498291015625,0.721282958984375,-0.1313629150390625,1950.466743916667,1.780697847020043,1.613182229983565,-0.9750924287182335,0.8231458067893982,0.3907328248023987,-0.2102023214101791,0.1578472852706909,-0.2396185398101807,-0.2549335956573486,XArbitraryZVertical,-0.6997095807115443,0.1493121762421947,0.2624157234813997,0.6474954060657869,0.560587465763092,0.8277537822723389,0.02377524599432945,1918.933364875,unknown,2,2020-03-15 14:23:10.864 +0100,605971419.3351135,0,-6.75,101.3052
2020-03-15 14:23:42.425 +0100,1950.491864916667,0.6316375732421875,0.8892974853515625,-0.04998779296875,1950.481815916667,1.733879829432943,1.578823735834744,-0.9776911005725123,2.722231864929199,-0.2143382728099823,-0.148910790681839,0.1567981839179993,-0.1578828096389771,-0.1735109090805054,XArbitraryZVertical,-0.6918671103509424,0.1535033952595101,0.2582537196407146,0.6565528848772626,0.558920681476593,0.82920902967453,0.004486781544983387,1918.933364875,unknown,2,2020-03-15 14:23:10.864 +0100,605971419.3351135,0,-6.75,101.3052
2020-03-15 14:23:42.450 +0100,1950.506936916667,0.548431396484375,0.6705169677734375,0.005218505859375,1950.496888916667,1.644408551926698,1.497589501604013,-0.9829474649821726,3.613904714584351,-0.302940309047699,-0.6147669553756714,0.07854068279266357,0.05714726448059082,-0.009442389011383057,XArbitraryZVertical,-0.6750007529548963,0.1552187594652575,0.2544940344937358,0.6749178113778647,0.5530871152877808,0.8321355581283569,-0.04056224226951599,1918.933364875,unknown,2,2020-03-15 14:23:10.864 +0100,605971419.3351135,0,-6.75,101.3052
2020-03-15 14:23:42.464 +0100,1950.522008916667,0.6470794677734375,0.4703369140625,-0.170806884765625,1950.511960916667,1.544582597356398,1.413807454807182,-0.9827378490061957,3.717763185501099,0.04625033587217331,-0.2013741433620453,-0.02255904674530029,-0.06389153003692627,0.1133267283439636,XArbitraryZVertical,-0.6565689561173366,0.159847839832353,0.2482882415879775,0.6940596027592899,0.5479245781898499,0.8320193290710449,-0.08673174679279327,1918.933364875,unknown,2,2020-03-15 14:23:10.864 +0100,605971419.3351135,0,-6.75,101.3052
2020-03-15 14:23:42.470 +0100,1950.537080916667,0.5200958251953125,0.403900146484375,-0.210540771484375,1950.527032916667,1.44374142088847,1.327837685655944,-0.9700001843745387,3.897301197052002,-0.335565447807312,0.3238573372364044,0.09837281703948975,-0.35456383228302,-0.03482538461685181,XArbitraryZVertical,-0.6358186727014009,0.1665414482676557,0.2447838490244141,0.7127968790003369,0.548696756362915,0.8248858451843262,-0.1359971165657043,1918.933364875,unknown,2,2020-03-15 14:23:10.864 +0100,605971419.3351135,0,-6.75,101.3052
2020-03-15 14:23:42.485 +0100,1950.552152916667,0.4599761962890625,0.176025390625,-0.2189788818359375,1950.542104916667,1.352419788613236,1.248695615331673,-0.9479019772913257,3.54945182800293,-0.2123643606901169,0.5590928792953491,0.01447480916976929,-0.3668650388717651,-0.03887861967086792,XArbitraryZVertical,-0.6143375563990914,0.1739271797589674,0.2437114504210327,0.7300297794750579,0.5533862113952637,0.8121933341026306,-0.1846774071455002,1918.933364875,unknown,2,2020-03-15 14:23:10.864 +0100,605971419.3351135,0,-6.75,101.3052
2020-03-15 14:23:42.500 +0100,1950.567224916667,0.4737701416015625,0.0825653076171875,-0.2044219970703125,1950.557176916667,1.280394440003387,1.187923048064888,-0.921214486427779,2.91205883026123,-0.1799771189689636,0.8037683963775635,-0.101093053817749,-0.620326042175293,0.006972432136535645,XArbitraryZVertical,-0.5948872407791433,0.1820066870287896,0.243953155478171,0.7439552775956613,0.5610589385032654,0.7963367700576782,-0.2259654700756073,1918.933364875,unknown,2,2020-03-15 14:23:10.864 +0100,605971419.3351135,0,-6.75,101.3052
2020-03-15 14:23:42.515 +0100,1950.582297916667,0.4924774169921875,0.0263824462890625,-0.1961212158203125,1950.572249916667,1.236727031477611,1.150813317149103,-0.8939445477117188,1.770951867103577,-0.1599606424570084,1.138538002967834,-0.1050781011581421,-0.6715914011001587,0.0485261082649231,XArbitraryZVertical,-0.5799541891800915,0.1896292258092305,0.2469159281158849,0.7528123861558877,0.5719103217124939,0.7795484662055969,-0.2553877830505371,1918.933364875,unknown,2,2020-03-15 14:23:10.864 +0100,605971419.3351135,0,-6.75,101.3052
2020-03-15 14:23:42.530 +0100,1950.597369916667,0.51678466796875,0.0176849365234375,-0.165679931640625,1950.587321916667,1.223403822218996,1.138587540491084,-0.868597075757248,0.6403815746307373,-0.1003783270716667,1.456514239311218,-0.09403645992279053,-0.737054705619812,0.07441806793212891,XArbitraryZVertical,-0.5709574618132035,0.1968030315447915,0.253101599656609,0.7557882366699111,0.5865033268928528,0.7634235620498657,-0.2705522775650024,1918.933364875,unknown,2,2020-03-15 14:23:10.864 +0100,605971419.3351135,0,-6.75,101.3052
2020-03-15 14:23:42.545 +0100,1950.612441916667,0.5416107177734375,0.0532073974609375,-0.1233978271484375,1950.602393916667,1.2370793266201,1.14759891741595,-0.8456459451458257,-0.4437087774276733,-0.06996166706085205,1.810102701187134,-0.09398996829986572,-0.7303924560546875,0.09310805797576904,XArbitraryZVertical,-0.567806743354507,0.2034818352709661,0.2626207605464436,0.7531407550051765,0.6047366261482239,0.7483996748924255,-0.2723812758922577,1918.933364875,unknown,2,2020-03-15 14:23:10.864 +0100,605971419.3351135,0,-6.75,101.3052
2020-03-15 14:23:42.560 +0100,1950.627513916667,0.602447509765625,0.1226959228515625,-0.0848846435546875,1950.617465916667,1.273356300235424,1.173708092674652,-0.8237610424347257,-1.303997993469238,-0.04018619656562805,2.135696411132812,-0.08499836921691895,-0.6805122494697571,0.1393623352050781,XArbitraryZVertical,-0.5697240424266004,0.2098281536793228,0.2754045563582927,0.7453448611175147,0.6265978813171387,0.733706533908844,-0.262773334980011,1918.933364875,unknown,2,2020-03-15 14:23:10.864 +0100,605971419.3351135,0,-6.75,101.3052
2020-03-15 14:23:42.575 +0100,1950.642585916667,0.6695098876953125,0.19598388671875,-0.0408477783203125,1950.632537916667,1.323478836527567,1.20962714106527,-0.7998338326229231,-1.7101069688797,-0.02073219045996666,2.51853346824646,-0.07285606861114502,-0.6180252432823181,0.1452704668045044,XArbitraryZVertical,-0.5745074705795971,0.2163864548048468,0.2909438041262396,0.7338049989705971,0.6518697142601013,0.7172403335571289,-0.2462361305952072,1918.933364875,unknown,2,2020-03-15 14:23:10.864 +0100,605971421.9046806,0,-6.82,101.3073
2020-03-15 14:23:42.590 +0100,1950.657658916667,0.745941162109375,0.2777252197265625,-0.0257415771484375,1950.647609916667,1.378169666969123,1.248067628230014,-0.7699103075972865,-1.754608035087585,-0.007442099507898092,2.94519305229187,-0.01140892505645752,-0.5000994801521301,0.1868475675582886,XArbitraryZVertical,-0.5795440317515854,0.2242189533248446,0.3088772960764621,0.7200342743899759,0.6809066534042358,0.6960708498954773,-0.2277091592550278,1918.933364875,unknown,2,2020-03-15 14:23:10.864 +0100,605971421.9046806,0,-6.82,101.3073
2020-03-15 14:23:42.606 +0100,1950.672730916667,0.850677490234375,0.37652587890625,-0.0421600341796875,1950.662682916667,1.430839873030956,1.284267777792257,-0.7320017098075451,-1.576778292655945,0.04065663367509842,3.38545560836792,0.004828095436096191,-0.4209811687469482,0.1816479563713074,XArbitraryZVertical,-0.5831545156204957,0.2341314997253804,0.3287067176233865,0.7050285065149996,0.7135123610496521,0.6683599352836609,-0.2102265059947968,1918.933364875,unknown,2,2020-03-15 14:23:10.864 +0100,605971421.9046806,0,-6.82,101.3073
2020-03-15 14:23:42.621 +0100,1950.687802916667,0.9703826904296875,0.42901611328125,-0.0606231689453125,1950.677754916667,1.477127341950752,1.315315667340818,-0.6857062721530567,-1.275704503059387,0.07539969682693481,3.767895936965942,0.1018136739730835,-0.2567054033279419,0.1534161567687988,XArbitraryZVertical,-0.5843020570412903,0.246567833385785,0.3498506968988202,0.6894924048781421,0.7488502860069275,0.6332197785377502,-0.1955908238887787,1918.933364875,unknown,2,2020-03-15 14:23:10.864 +0100,605971421.9046806,0,-6.82,101.3073
2020-03-15 14:23:42.635 +0100,1950.702874916667,1.105361938476562,0.4839324951171875,-0.0878753662109375,1950.692826916667,1.516574851922109,1.340625725991619,-0.631840564616922,-1.035280823707581,0.06699590384960175,4.174314022064209,0.1433109045028687,-0.1733289361000061,0.1305409669876099,XArbitraryZVertical,-0.5828256652473267,0.261275606666049,0.372086251236088,0.6734990880525173,0.7856606245040894,0.5906310081481934,-0.1840986013412476,1918.933364875,unknown,2,2020-03-15 14:23:10.864 +0100,605971421.9046806,0,-6.82,101.3073
2020-03-15 14:23:42.650 +0100,1950.717946916667,1.249679565429688,0.523223876953125,-0.1082305908203125,1950.707898916667,1.551082926624913,1.361015450869902,-0.5713581614549933,-0.9172227382659912,0.04786205291748047,4.463142871856689,0.2826213240623474,-0.05685222148895264,0.08727920055389404,XArbitraryZVertical,-0.579044716354628,0.2777094606646112,0.3954954127170867,0.6566337643506244,0.8227258920669556,0.5407750010490417,-0.1751693487167358,1918.933364875,unknown,2,2020-03-15 14:23:10.864 +0100,605971421.9046806,0,-6.82,101.3073
2020-03-15 14:23:42.665 +0100,1950.733018291667,1.410202026367188,0.5334320068359375,-0.131134033203125,1950.722970916667,1.582903894461841,1.377976787543989,-0.5063004064677744,-0.9118258953094482,0.03103378787636757,4.71127986907959,0.3405609726905823,0.02847403287887573,0.06651264429092407,XArbitraryZVertical,-0.5737170597943843,0.2950518242500013,0.4196938291096485,0.638474977151942,0.8583374619483948,0.4849451184272766,-0.1675863116979599,1918.933364875,unknown,2,2020-03-15 14:23:10.864 +0100,605971421.9046806,0,-6.82,101.3073
2020-03-15 14:23:42.681 +0100,1950.748091291667,1.519195556640625,0.503692626953125,-0.11480712890625,1950.738042291667,1.613051565236732,1.391745253961765,-0.4374736966744108,-0.9165154099464417,-0.02073140628635883,4.920280456542969,0.5188426971435547,0.1097720265388489,0.0301748514175415,XArbitraryZVertical,-0.5669931347403205,0.3128209297133802,0.4445795936195293,0.6188787762676131,0.8913435935974121,0.4236524403095245,-0.1613236963748932,1918.933364875,unknown,2,2020-03-15 14:23:10.864 +0100,605971421.9046806,0,-6.82,101.3073
2020-03-15 14:23:42.696 +0100,1950.763163291667,1.6083984375,0.4787750244140625,-0.0839080810546875,1950.753115291667,1.642121700612907,1.402648829217879,-0.3657800393530453,-0.9252302646636963,-0.03413249179720879,5.040559768676758,0.5682312250137329,0.1569032073020935,0.03529822826385498,XArbitraryZVertical,-0.5590338978188379,0.330664010711083,0.469847099728694,0.5978178555404335,0.9206746220588684,0.3576778471469879,-0.15628482401371,1918.933364875,unknown,2,2020-03-15 14:23:10.864 +0100,605971421.9046806,0,-6.82,101.3073
2020-03-15 14:23:42.711 +0100,1950.778235291667,1.6876220703125,0.479217529296875,-0.0505828857421875,1950.768187291667,1.669650650540045,1.411088215133762,-0.2932821303071457,-0.9268817901611328,-0.03842858597636223,4.983254909515381,0.6632641553878784,0.1896739900112152,0.06831622123718262,XArbitraryZVertical,-0.5501290131698874,0.3481929432090626,0.4945681684936755,0.5757795333247665,0.9451173543930054,0.2890957593917847,-0.1522394865751266,1918.933364875,unknown,2,2020-03-15 14:23:10.864 +0100,605971421.9046806,0,-6.82,101.3073
2020-03-15 14:23:42.726 +0100,1950.793307291667,1.682113647460938,0.4868927001953125,-0.017852783203125,1950.783259291667,1.695979738508663,1.417011050377091,-0.222464089477658,-0.9455186128616333,-0.06977600604295731,4.825544357299805,0.7044718265533447,0.259815901517868,0.08719503879547119,XArbitraryZVertical,-0.5407340052278085,0.364560352524072,0.5181666244414428,0.5533586435538977,0.9638458490371704,0.2206336557865143,-0.1494049727916718,1918.933364875,unknown,2,2020-03-15 14:23:10.864 +0100,605971421.9046806,0,-6.82,101.3073
2020-03-15 14:23:42.741 +0100,1950.808379291667,1.606475830078125,0.4971923828125,0.0284423828125,1950.798331291667,1.721781146230064,1.420858215830764,-0.1545143303698872,-1.033582091331482,-0.05225399881601334,4.567260265350342,0.7050960063934326,0.3329896926879883,0.1297295093536377,XArbitraryZVertical,-0.5312712971082092,0.3794102610481263,0.5404264513402569,0.5307899362704263,0.9770004153251648,0.1539002358913422,-0.1475973278284073,1918.933364875,unknown,2,2020-03-15 14:23:10.864 +0100,605971421.9046806,0,-6.82,101.3073
2020-03-15 14:23:42.756 +0100,1950.823451291667,1.5299072265625,0.4947509765625,0.02716064453125,1950.813403291667,1.74843094227111,1.423735558756478,-0.09197470983122066,-1.211002945899963,-0.006925948895514011,4.149147033691406,0.6479225158691406,0.4057576358318329,0.1608349084854126,XArbitraryZVertical,-0.5228706741990992,0.3919825318787309,0.5608776746923413,0.5083031221323969,0.9850248694419861,0.09184508770704269,-0.1459119021892548,1918.933364875,unknown,2,2020-03-15 14:23:10.864 +0100,605971421.9046806,0,-6.82,101.3073
2020-03-15 14:23:42.771 +0100,1950.838524291667,1.430587768554688,0.5274658203125,-0.0031890869140625,1950.828476291667,1.776222277494937,1.425571114049133,-0.03641180307757111,-1.342908978462219,0.01499447040259838,3.668919086456299,0.5410721302032471,0.4583465456962585,0.171764612197876,XArbitraryZVertical,-0.515987734590183,0.4018046713450352,0.5793799403686211,0.4864445965412014,0.9888173341751099,0.03640375658869743,-0.1446193307638168,1918.933364875,unknown,2,2020-03-15 14:23:10.864 +0100,605971421.9046806,0,-6.82,101.3073
2020-03-15 14:23:42.786 +0100,1950.853596291667,1.310577392578125,0.5474395751953125,-0.043609619140625,1950.843548291667,1.804064537621262,1.42644340525842,0.0112330128087446,-1.374839782714844,0.06110433861613274,3.114646434783936,0.4781427383422852,0.5258508920669556,0.1548140645027161,XArbitraryZVertical,-0.5106939825990089,0.4089867261042929,0.5956203310776016,0.4660020071276189,0.9895367026329041,-0.0112327765673399,-0.143843024969101,1918.933364875,unknown,2,2020-03-15 14:23:10.864 +0100,605971421.9046806,0,-6.82,101.3073
2020-03-15 14:23:42.801 +0100,1950.868668291667,1.212905883789062,0.5167236328125,-0.0433502197265625,1950.858620291667,1.829962789863471,1.427288791416002,0.05029743248992451,-1.28104829788208,0.1645966470241547,2.501983642578125,0.322090744972229,0.5977166891098022,0.09920966625213623,XArbitraryZVertical,-0.5070422181670812,0.4141145772188627,0.6090021534970993,0.4478099599387655,0.9884688854217529,-0.05027622729539871,-0.1428346186876297,1918.933364875,unknown,2,2020-03-15 14:23:10.864 +0100,605971421.9046806,0,-6.82,101.3073
2020-03-15 14:23:42.816 +0100,1950.883740291667,1.152114868164062,0.4603424072265625,-0.0497589111328125,1950.873692291667,1.853095434541445,1.429071998503852,0.08059332933018083,-1.17068612575531,0.2725207209587097,1.925554156303406,0.2558824419975281,0.6159994602203369,0.09504616260528564,XArbitraryZVertical,-0.5052169607796752,0.4175642169425069,0.6193431930844143,0.4322152987969093,0.986760675907135,-0.0805061087012291,-0.1407918930053711,1918.933364875,unknown,2,2020-03-15 14:23:10.864 +0100,605971421.9046806,0,-6.82,101.3073
2020-03-15 14:23:42.832 +0100,1950.898812291667,1.128448486328125,0.4575042724609375,-0.072296142578125,1950.888764291667,1.872774160762103,1.43206845719993,0.1031737046053178,-0.9688097238540649,0.3600080907344818,1.411546349525452,0.1669713854789734,0.5633350014686584,0.08777385950088501,XArbitraryZVertical,-0.5049176056033456,0.4198621513837109,0.6268747956287608,0.4192874620694408,0.9851261377334595,-0.1029907613992691,-0.1375479698181152,1918.933364875,unknown,2,2020-03-15 14:23:10.864 +0100,605971421.9046806,0,-6.82,101.3073
