loggingTime(txt),accelerometerTimestamp_sinceReboot(s),accelerometerAccelerationX(G),accelerometerAccelerationY(G),accelerometerAccelerationZ(G),motionTimestamp_sinceReboot(s),motionYaw(rad),motionRoll(rad),motionPitch(rad),motionRotationRateX(rad/s),motionRotationRateY(rad/s),motionRotationRateZ(rad/s),motionUserAccelerationX(G),motionUserAccelerationY(G),motionUserAccelerationZ(G),motionAttitudeReferenceFrame(txt),motionQuaternionX(R),motionQuaternionY(R),motionQuaternionZ(R),motionQuaternionW(R),motionGravityX(G),motionGravityY(G),motionGravityZ(G),activityTimestamp_sinceReboot(s),activity(txt),activityActivityConfidence(Z),activityActivityStartDate(txt),altimeterTimestamp_sinceReboot(s),altimeterReset(bool),altimeterRelativeAltitude(m),altimeterPressure(kPa)
2020-03-15 14:36:12.381 +0100,2700.374353541667,-0.223663330078125,0.569244384765625,-0.808441162109375,2700.369329541667,-0.171693787640325,-0.2759738344974051,-0.5861171915902778,-0.01117819175124168,-0.03595717251300812,0.007509536109864712,-0.005049780011177063,0.004484593868255615,-0.01204407215118408,XArbitraryZVertical,-0.2963730770068985,-0.1066663383871611,-0.04171644786070908,0.948179809088064,-0.2270050048828125,0.5531304478645325,-0.8015705943107605,2681.622791,walking,2,2020-03-15 14:35:53.554 +0100,605972169.2991588,0,-5.86,101.2902
2020-03-15 14:36:12.382 +0100,2700.414543541667,-0.227294921875,0.553131103515625,-0.802154541015625,2700.409519541667,-0.1703641131894282,-0.2746101320296899,-0.5841808286576439,0.1293101906776428,0.07658690959215164,0.01917348243296146,-0.01021708548069,0.00875389575958252,-0.002664387226104736,XArbitraryZVertical,-0.2953622594792976,-0.1063330014084965,-0.0414380419122852,0.9485448611639653,-0.2262017130851746,0.5515162348747253,-0.8029088377952576,2681.622791,walking,2,2020-03-15 14:35:53.554 +0100,605972169.2991588,0,-5.86,101.2902
2020-03-15 14:36:12.389 +0100,2700.454733375,-0.218994140625,0.544677734375,-0.7986602783203125,2700.449709375,-0.1685964959315691,-0.2703208685620637,-0.5793127060825995,0.0893813818693161,0.06104757264256477,-0.03870366513729095,-0.002328619360923767,0.005344390869140625,0.007422268390655518,XArbitraryZVertical,-0.2928859904678875,-0.1048476764361002,-0.04160417586538019,0.9494703265943883,-0.223470076918602,0.5474489331245422,-0.8064495325088501,2681.622791,walking,2,2020-03-15 14:35:53.554 +0100,605972169.2991588,0,-5.86,101.2902
2020-03-15 14:36:12.430 +0100,2700.494923375,-0.2191162109375,0.5465087890625,-0.7889556884765625,2700.489899375,-0.1698509519085141,-0.2712685562081892,-0.578431144256196,-0.0157487653195858,-0.04180235415697098,-0.008405348286032677,-0.0007333159446716309,-0.001684367656707764,0.01559412479400635,XArbitraryZVertical,-0.2925560300195738,-0.1051662775362378,-0.0421283755989085,0.9495137435950225,-0.2243634760379791,0.5467109680175781,-0.8067020177841187,2681.622791,walking,2,2020-03-15 14:35:53.554 +0100,605972169.2991588,0,-5.86,101.2902
2020-03-15 14:36:12.469 +0100,2700.535113375,-0.2330322265625,0.5617828369140625,-0.7826995849609375,2700.530090375,-0.1709123448250249,-0.2725077032386283,-0.5788976755376785,0.01268620602786541,0.02384055964648724,-0.05735721066594124,-0.01196373999118805,0.01315319538116455,0.02172255516052246,XArbitraryZVertical,-0.2928580983526283,-0.1055713551024142,-0.04241508258442685,0.949362830324578,-0.2252942472696304,0.5471015572547913,-0.8061776757240295,2681.622791,walking,2,2020-03-15 14:35:53.554 +0100,605972171.8674319,0,-6.16,101.2908
2020-03-15 14:36:12.509 +0100,2700.575304375,-0.212249755859375,0.5517578125,-0.7898101806640625,2700.570280375,-0.1744982667311361,-0.2756283957030371,-0.5798197467555394,-0.0780046284198761,-0.08298486471176147,-0.1045248582959175,0.02756877243518829,0.003638327121734619,0.01821041107177734,XArbitraryZVertical,-0.2935497730789294,-0.1064710267789041,-0.0435880447325861,0.9489955905864479,-0.2276715934276581,0.5478731393814087,-0.8049849271774292,2681.622791,walking,2,2020-03-15 14:35:53.554 +0100,605972171.8674319,0,-6.16,101.2908
2020-03-15 14:36:12.550 +0100,2700.615494375,-0.23651123046875,0.5381011962890625,-0.790191650390625,2700.610470375,-0.1782622480448018,-0.280477765941001,-0.5823673866333342,-0.02641782723367214,0.04078805819153786,-0.004989611450582743,0.001984179019927979,-0.01454353332519531,0.02178025245666504,XArbitraryZVertical,-0.2950579014454429,-0.1080605065574974,-0.04445950563822217,0.948307536239227,-0.2311854362487793,0.5500026345252991,-0.8025275468826294,2681.622791,walking,2,2020-03-15 14:35:53.554 +0100,605972171.8674319,0,-6.16,101.2908
2020-03-15 14:36:12.590 +0100,2700.655684375,-0.2156219482421875,0.54779052734375,-0.810638427734375,2700.650660375,-0.1772542730213971,-0.2768911047615292,-0.5818845903437144,0.03609493374824524,0.05456876754760742,0.03084908053278923,0.006363809108734131,-0.00213170051574707,-0.002683639526367188,XArbitraryZVertical,-0.2946967626527554,-0.1065381500646801,-0.04454839336911778,0.9485878872437377,-0.2283781319856644,0.5495993494987488,-0.8036068677902222,2681.622791,walking,2,2020-03-15 14:35:53.554 +0100,605972171.8674319,0,-6.16,101.2908
2020-03-15 14:36:12.630 +0100,2700.695874375,-0.2284088134765625,0.5528106689453125,-0.808349609375,2700.690850375,-0.1752358170441769,-0.2747071820088403,-0.5815549304721747,0.01177943684160709,0.01298078149557114,0.03266109526157379,-0.0008815228939056396,0.001897215843200684,-0.005705118179321289,XArbitraryZVertical,-0.2943860667854911,-0.1058197143263645,-0.04393831821476044,0.9487931981382138,-0.2266717106103897,0.5493239164352417,-0.8042780756950378,2681.622791,walking,2,2020-03-15 14:35:53.554 +0100,605972171.8674319,0,-6.16,101.2908
2020-03-15 14:36:12.670 +0100,2700.736064375,-0.2260894775390625,0.564727783203125,-0.8067779541015625,2700.731041375,-0.1737166526086183,-0.2729019978986003,-0.5815192553900007,0.00146674457937479,0.03263729065656662,0.03163654357194901,0.001699909567832947,0.007252216339111328,-0.002303004264831543,XArbitraryZVertical,-0.2942496757595316,-0.1051890107905984,-0.0434859940046998,0.9489264519648571,-0.2252247482538223,0.549294114112854,-0.8047047853469849,2681.622791,walking,2,2020-03-15 14:35:53.554 +0100,605972171.8674319,0,-6.16,101.2908
2020-03-15 14:36:12.711 +0100,2700.776254375,-0.2276763916015625,0.552978515625,-0.7945404052734375,2700.771231375,-0.1736237970571572,-0.2726030424277696,-0.5821309047384178,-0.0305279977619648,-0.02666475251317024,-0.02480133250355721,-0.0003249049186706543,0.006146073341369629,0.009357631206512451,XArbitraryZVertical,-0.2945264364279438,-0.1050237884816163,-0.04343872432036686,0.9488610241835241,-0.2248936593532562,0.5498051047325134,-0.8044483661651611,2681.622791,walking,2,2020-03-15 14:35:53.554 +0100,605972171.8674319,0,-6.16,101.2908
2020-03-15 14:36:12.751 +0100,2700.816445375,-0.218048095703125,0.573486328125,-0.7734375,2700.811421375,-0.1762393269054326,-0.2767903591172324,-0.5845228625446861,-0.08208665996789932,-0.05423594266176224,-0.0474930964410305,-0.0001108497381210327,0.003600537776947021,0.02410942316055298,XArbitraryZVertical,-0.2958823567185089,-0.1064776629346566,-0.04387516887290509,0.948256904084438,-0.2279001325368881,0.5518015027046204,-0.8022322654724121,2681.622791,walking,2,2020-03-15 14:35:53.554 +0100,605972171.8674319,0,-6.16,101.2908
2020-03-15 14:36:12.791 +0100,2700.856635375,-0.223480224609375,0.5489349365234375,-0.796966552734375,2700.851611375,-0.1787333659630823,-0.2786365109433429,-0.5855866104483746,-0.008371294476091862,-0.01265359483659267,-0.04313346743583679,0.01468180119991302,0.005994200706481934,0.001332879066467285,XArbitraryZVertical,-0.2965567991084109,-0.106917599181246,-0.04470036999115638,0.9479581410506289,-0.2292192131280899,0.5526883602142334,-0.801245391368866,2681.622791,walking,2,2020-03-15 14:35:53.554 +0100,605972171.8674319,0,-6.16,101.2908
2020-03-15 14:36:12.831 +0100,2700.896825375,-0.2303009033203125,0.5578155517578125,-0.8084259033203125,2700.891801375,-0.1795722863378229,-0.2789630857722112,-0.5849174792603001,0.03817857056856155,0.02190398424863815,-0.002921833656728268,0.004531979560852051,0.005025923252105713,-0.008457541465759277,XArbitraryZVertical,-0.2962942493463531,-0.1069897930490317,-0.04510248989714229,0.9480129892356118,-0.2295826375484467,0.5521305799484253,-0.8015258312225342,2681.622791,walking,2,2020-03-15 14:35:53.554 +0100,605972171.8674319,0,-6.16,101.2908
2020-03-15 14:36:12.871 +0100,2700.937015375,-0.2216339111328125,0.557281494140625,-0.8148651123046875,2700.931991375,-0.1792291171866275,-0.2780858269510544,-0.5845356510533999,0.02175086364150047,0.02303561940789223,0.0143273277208209,0.002055540680885315,0.01097476482391357,-0.01005268096923828,XArbitraryZVertical,-0.2960765200773295,-0.106648591429211,-0.04509988646372948,0.9481195402897948,-0.2289372682571411,0.5518121719360352,-0.8019295334815979,2681.622791,walking,2,2020-03-15 14:35:53.554 +0100,605972171.8674319,0,-6.16,101.2908
2020-03-15 14:36:12.912 +0100,2700.977205375,-0.23931884765625,0.566375732421875,-0.8049468994140625,2700.972182375,-0.1782480921868683,-0.2776992595766241,-0.5836949425116218,0.05018296092748642,0.02604641020298004,0.04425633326172829,-0.008259192109107971,0.01045548915863037,-0.0007903575897216797,XArbitraryZVertical,-0.2956199197714705,-0.1066627127731133,-0.0447581965526017,0.9482766451460537,-0.2287543416023254,0.5511108636856079,-0.8024638295173645,2681.622791,walking,2,2020-03-15 14:35:53.554 +0100,605972171.8674319,0,-6.16,101.2908
2020-03-15 14:36:12.952 +0100,2701.017396375,-0.196929931640625,0.5655364990234375,-0.80206298828125,2701.012372375,-0.1768995831069183,-0.2752550312728018,-0.5813628784605497,0.0693725198507309,0.06346278637647629,-0.03265748918056488,-0.01548776030540466,0.01893353462219238,-0.00739133358001709,XArbitraryZVertical,-0.2943958224118661,-0.1058464818471913,-0.04466190010051038,0.9487533311911008,-0.2271409630775452,0.5491634011268616,-0.8042552471160889,2681.622791,walking,2,2020-03-15 14:35:53.554 +0100,605972171.8674319,0,-6.16,101.2908
2020-03-15 14:36:12.992 +0100,2701.057586375,-0.23699951171875,0.561279296875,-0.8041229248046875,2701.052562375,-0.179104930237153,-0.2770454535230423,-0.5811661548450759,-0.01378506422042847,-0.03241260722279549,-0.07926780730485916,-0.00472596287727356,0.007760584354400635,-0.002187013626098633,XArbitraryZVertical,-0.2944605452536582,-0.1063832660624653,-0.04545982578273126,0.9486353051318325,-0.228610098361969,0.548999011516571,-0.8039512038230896,2681.622791,walking,2,2020-03-15 14:35:53.554 +0100,605972171.8674319,0,-6.16,101.2908
2020-03-15 14:36:13.032 +0100,2701.097776375,-0.2445526123046875,0.544403076171875,-0.7946319580078125,2701.092752375,-0.184138075954974,-0.2823807307074405,-0.5809766940243821,-0.01034070271998644,-0.06534479558467865,-0.08970449864864349,-0.006361931562423706,-0.006195366382598877,0.004280686378479004,XArbitraryZVertical,-0.2947647810432237,-0.1081838839083317,-0.04707578392286145,0.9482583428935167,-0.2329251021146774,0.5488406419754028,-0.8028199672698975,2681.622791,walking,2,2020-03-15 14:35:53.554 +0100,605972171.8674319,0,-6.16,101.2908
2020-03-15 14:36:13.072 +0100,2701.137966375,-0.23443603515625,0.535552978515625,-0.8043365478515625,2701.132942375,-0.1856055172035854,-0.2834283652590146,-0.5782634141374364,0.1028366759419441,0.024845190346241,0.001944394782185555,-0.001153334975242615,-0.0084725022315979,-0.001037359237670898,XArbitraryZVertical,-0.2935926663742165,-0.1086380552475035,-0.04783547216265284,0.9485319135812823,-0.2341816127300262,0.5465705394744873,-0.8040022253990173,2681.622791,walking,2,2020-03-15 14:35:53.554 +0100,605972171.8674319,0,-6.16,101.2908
2020-03-15 14:36:13.113 +0100,2701.178156375,-0.228912353515625,0.532501220703125,-0.811065673828125,2701.173132375,-0.1831549929209285,-0.2815858152205967,-0.5756459463786531,0.07259494811296463,0.0206828061491251,0.07535652071237564,0.001469448208808899,-0.01067310571670532,-0.001707553863525391,XArbitraryZVertical,-0.2921839327350789,-0.1082893704696441,-0.04715261359759969,0.9490408985046019,-0.2330965548753738,0.5443767309188843,-0.8058038949966431,2681.622791,walking,2,2020-03-15 14:35:53.554 +0100,605972171.8674319,0,-6.16,101.2908
2020-03-15 14:36:13.153 +0100,2701.218346375,-0.230865478515625,0.5448760986328125,-0.805755615234375,2701.213323375,-0.1799028161737568,-0.2784808768591975,-0.5740691245547707,0.04844982922077179,0.04924634844064713,0.009557840414345264,-0.00755763053894043,-0.002254366874694824,0.00281214714050293,XArbitraryZVertical,-0.2911933782188084,-0.107388897511264,-0.0461869975005547,0.949494999728945,-0.2308291345834732,0.5430533885955811,-0.8073480725288391,2681.622791,walking,2,2020-03-15 14:35:53.554 +0100,605972171.8674319,0,-6.16,101.2908
2020-03-15 14:36:13.193 +0100,2701.258537375,-0.23187255859375,0.5406341552734375,-0.7889862060546875,2701.253513375,-0.1805331290422878,-0.2778192347555241,-0.572646141659536,0.01081951893866062,0.02207204326987267,-0.03443365171551704,0.001092016696929932,-0.005560219287872314,0.02119362354278564,XArbitraryZVertical,-0.2905411744325915,-0.1070716733194009,-0.0466946499387234,0.9497058304989335,-0.2305066287517548,0.5418579578399658,-0.8082429766654968,2681.622791,walking,2,2020-03-15 14:35:53.554 +0100,605972171.8674319,0,-6.16,101.2908
2020-03-15 14:36:13.233 +0100,2701.298727375,-0.2337493896484375,0.530059814453125,-0.7974853515625,2701.293703375,-0.1839276674243835,-0.2794874322709178,-0.5722341888066278,-0.008922550827264786,0.01021445170044899,-0.07261136919260025,0.002226963639259338,0.001499772071838379,0.01200437545776367,XArbitraryZVertical,-0.290568598400197,-0.1073964755392379,-0.04809667300358824,0.9495907256684585,-0.2319161593914032,0.5415116548538208,-0.8080717921257019,2681.622791,walking,2,2020-03-15 14:35:53.554 +0100,605972171.8674319,0,-6.16,101.2908
2020-03-15 14:36:13.273 +0100,2701.338917375,-0.2346649169921875,0.5411224365234375,-0.7957000732421875,2701.333893375,-0.1866504134407859,-0.2823522964828997,-0.5736032626675733,-0.06528045982122421,-0.03300535306334496,0.01352122239768505,0.01409994065761566,-0.009904742240905762,0.01546084880828857,XArbitraryZVertical,-0.2914297478796433,-0.1082731451306826,-0.04886305568956587,0.9491880064333073,-0.2340234369039536,0.5426621437072754,-0.8066912293434143,2681.622791,walking,2,2020-03-15 14:35:53.554 +0100,605972171.8674319,0,-6.16,101.2908
2020-03-15 14:36:13.314 +0100,2701.379107375,-0.2293548583984375,0.5655364990234375,-0.807373046875,2701.374083375,-0.1883242408839448,-0.284036180682785,-0.5749680135108076,-0.01551642268896103,-0.01686856523156166,-0.08730808645486832,0.009436622262001038,0.01995527744293213,-0.00499415397644043,XArbitraryZVertical,-0.2922043415517341,-0.1087401434268205,-0.04930176260429798,0.9488738362316935,-0.2351737320423126,0.5438079237937927,-0.8055844306945801,2681.622791,walking,2,2020-03-15 14:35:53.554 +0100,605972171.8674319,0,-6.16,101.2908
2020-03-15 14:36:13.354 +0100,2701.419297375,-0.214019775390625,0.525848388671875,-0.8116607666015625,2701.414274375,-0.192119980024217,-0.2853982355898832,-0.573532276419137,0.02387439087033272,0.02569641172885895,-0.1254638582468033,-0.008304953575134277,0.01429420709609985,-0.00822901725769043,XArbitraryZVertical,-0.291769367020349,-0.1089256443340467,-0.0510201207684248,0.9488955398901783,-0.2364903390407562,0.5426024794578552,-0.8060116767883301,2681.622791,walking,2,2020-03-15 14:35:53.554 +0100,605972171.8674319,0,-6.16,101.2908
2020-03-15 14:36:13.394 +0100,2701.459488125,-0.216766357421875,0.5158538818359375,-0.7956085205078125,2701.454464125,-0.1974545735405476,-0.2889922557988079,-0.5727273935693901,-0.005988013464957476,-0.03883109241724014,-0.105613186955452,-0.0009976327419281006,-0.02512943744659424,0.002488493919372559,XArbitraryZVertical,-0.2917760881355731,-0.1099057235747834,-0.0530924147753289,0.9486667639252595,-0.2395100146532059,0.5419262051582336,-0.805574893951416,2681.622791,walking,2,2020-03-15 14:35:53.554 +0100,605972171.8674319,0,-6.16,101.2908
2020-03-15 14:36:13.434 +0100,2701.499678125,-0.26556396484375,0.572784423828125,-0.7974395751953125,2701.494654125,-0.193563675134591,-0.2884400158505318,-0.5744782356784451,0.102708637714386,0.04740656167268753,0.1765941977500916,-0.04001237452030182,0.02090054750442505,0.009094953536987305,XArbitraryZVertical,-0.2923712045805621,-0.110095457218321,-0.05118343971576603,0.9485663700460712,-0.238794818520546,0.5433968305587769,-0.8047961592674255,2681.622791,walking,2,2020-03-15 14:35:53.554 +0100,605972171.8674319,0,-6.16,101.2908
2020-03-15 14:36:13.482 +0100,2701.539868125,-0.243743896484375,0.550262451171875,-0.8108673095703125,2701.534844125,-0.1878858226670239,-0.2829947506413866,-0.5699516088031245,0.1112162172794342,0.04338755458593369,-0.02280506119132042,-0.01275376975536346,0.02211230993270874,0.0009267330169677734,XArbitraryZVertical,-0.2897926815185044,-0.1086329670173072,-0.0496494915417256,0.9496072291689825,-0.2350934147834778,0.5395913124084473,-0.8084381818771362,2681.622791,walking,2,2020-03-15 14:35:53.554 +0100,605972171.8674319,0,-6.16,101.2908
2020-03-15 14:36:13.515 +0100,2701.580058125,-0.236724853515625,0.51763916015625,-0.805023193359375,2701.575034125,-0.1875098478485743,-0.2815375994867967,-0.5670103195829952,-0.0002079280093312263,-0.02504692599177361,0.04642181470990181,0.010158970952034,-0.00119626522064209,0.008404910564422607,XArbitraryZVertical,-0.2883499825207093,-0.1081839957580932,-0.0499175037530571,0.9500835949408045,-0.2343551069498062,0.5371126532554626,-0.8103010058403015,2681.622791,walking,2,2020-03-15 14:35:53.554 +0100,605972171.8674319,0,-6.16,101.2908
2020-03-15 14:36:13.555 +0100,2701.620248125,-0.2583465576171875,0.5669403076171875,-0.8153533935546875,2701.615225125,-0.1825077872172404,-0.281121441767436,-0.5692974551365312,0.04478646442294121,-0.009825583547353745,0.0559193417429924,-0.02006059885025024,0.02197641134262085,-0.01251649856567383,XArbitraryZVertical,-0.289146909865437,-0.1085633465128743,-0.04741903395913436,0.9499260785628847,-0.2336764484643936,0.5390404462814331,-0.8092161417007446,2681.622791,walking,2,2020-03-15 14:35:53.554 +0100,605972171.8674319,0,-6.16,101.2908
2020-03-15 14:36:13.595 +0100,2701.660438125,-0.233673095703125,0.547882080078125,-0.816436767578125,2701.655415125,-0.1835718991890691,-0.2783461963896247,-0.5645614468097253,0.1383008360862732,0.1211366876959801,-0.1281194984912872,-0.01161392033100128,0.01373392343521118,0.001255631446838379,XArbitraryZVertical,-0.2869042297972953,-0.1073891380625755,-0.0486998808077771,0.9506744538808495,-0.2321286201477051,0.5350453853607178,-0.8123070597648621,2681.622791,walking,2,2020-03-15 14:35:53.554 +0100,605972171.8674319,0,-6.16,101.2908
2020-03-15 14:36:13.635 +0100,2701.700629125,-0.2447357177734375,0.5072479248046875,-0.8187408447265625,2701.695605125,-0.1894993253697257,-0.2766603459149011,-0.5574231100970813,0.1495732069015503,0.1553250104188919,-0.1809270530939102,-0.01249566674232483,-0.02319055795669556,0.002232134342193604,XArbitraryZVertical,-0.2838089329635013,-0.106194114743241,-0.05232265621874847,0.9515448725304428,-0.2317962050437927,0.5290011763572693,-0.8163505792617798,2681.622791,walking,2,2020-03-15 14:35:53.554 +0100,605972171.8674319,0,-6.16,101.2908
2020-03-15 14:36:13.675 +0100,2701.740819125,-0.2259063720703125,0.4771728515625,-0.8139190673828125,2701.735795125,-0.1933905666310978,-0.2696259220088147,-0.5494344008367464,0.2024315148591995,0.2746235132217407,-0.0563664473593235,-0.02980557084083557,-0.02725851535797119,0.02075290679931641,XArbitraryZVertical,-0.2800471229316731,-0.1028082431780688,-0.05579092807276666,0.9528333789143512,-0.2271664291620255,0.5222049355506897,-0.8220081329345703,2681.622791,walking,2,2020-03-15 14:35:53.554 +0100,605972171.8674319,0,-6.16,101.2908
2020-03-15 14:36:13.716 +0100,2701.781009125,-0.189361572265625,0.51934814453125,-0.7888946533203125,2701.775985125,-0.194409823891556,-0.2686960575537251,-0.5505247702050012,-0.1224860176444054,0.02709063515067101,-0.1261793226003647,0.03083263337612152,0.01775616407394409,0.02943229675292969,XArbitraryZVertical,-0.2805888841405559,-0.1021523102177134,-0.05632254605023462,0.9527132452857234,-0.2262506783008575,0.5231345295906067,-0.8216695785522461,2681.622791,walking,2,2020-03-15 14:35:53.554 +0100,605972171.8674319,0,-6.16,101.2908
2020-03-15 14:36:13.756 +0100,2701.821199125,-0.1638641357421875,0.4704132080078125,-0.7595672607421875,2701.816175125,-0.2003917244879006,-0.2734257503547871,-0.5570867837894491,-0.2843078374862671,-0.04701084271073341,0.06267821788787842,0.0438094437122345,-0.04118502140045166,0.03520762920379639,XArbitraryZVertical,-0.284130991547299,-0.1031305803448137,-0.05799052026436844,0.9514571063175222,-0.2292024493217468,0.5287157297134399,-0.8172672986984253,2681.622791,walking,2,2020-03-15 14:35:53.554 +0100,605972171.8674319,0,-6.16,101.2908
2020-03-15 14:36:13.796 +0100,2701.861389125,-0.2480926513671875,0.409942626953125,-0.80828857421875,2701.856366125,-0.1896349886373362,-0.2619221513094501,-0.5603615922448574,0.1845053285360336,0.2432060688734055,-0.04368021339178085,-0.01787549257278442,0.05981326103210449,0.02221262454986572,XArbitraryZVertical,-0.2848112448612035,-0.09897480097503,-0.0542555964962182,0.9519153607505584,-0.2193364799022675,0.5314925312995911,-0.8181731104850769,2681.622791,walking,2,2020-03-15 14:35:53.554 +0100,605972171.8674319,0,-6.16,101.2908
2020-03-15 14:36:13.836 +0100,2701.901580125,-0.20159912109375,0.5067596435546875,-0.8343353271484375,2701.896556125,-0.1867370945817463,-0.2542163505531241,-0.5607653261703606,0.05708537995815277,0.1857452839612961,0.08464629948139191,0.0236566960811615,0.008430719375610352,0.001164078712463379,XArbitraryZVertical,-0.2846526299042853,-0.09569372305736173,-0.05394301667591125,0.9523159599515345,-0.2129713594913483,0.5318344831466675,-0.8196311593055725,2681.622791,walking,2,2020-03-15 14:35:53.554 +0100,605972171.8674319,0,-6.16,101.2908
2020-03-15 14:36:13.876 +0100,2701.941770125,-0.202667236328125,0.5301971435546875,-0.8337860107421875,2701.936746125,-0.1825247959628825,-0.2436249403371666,-0.5573864586250816,0.1541511565446854,0.2247746735811234,0.05285025388002396,-0.002304017543792725,0.006091773509979248,-0.005888700485229492,XArbitraryZVertical,-0.2825714752149988,-0.09145122973595583,-0.0536814715344173,0.9533667946437039,-0.204710841178894,0.5289700627326965,-0.8235800862312317,2681.622791,walking,2,2020-03-15 14:35:53.554 +0100,605972171.8674319,0,-6.16,101.2908
2020-03-15 14:36:13.916 +0100,2701.981960125,-0.2189483642578125,0.593902587890625,-0.862548828125,2701.976936125,-0.178788819685785,-0.2332306248725309,-0.5498388319435813,0.2997946441173553,0.2114431411027908,-0.0009873798117041588,-0.02630060911178589,0.05366522073745728,-0.02467888593673706,XArbitraryZVertical,-0.2785461938365231,-0.08746377605052744,-0.05387960537492517,0.9549131556454972,-0.1970565319061279,0.5225498080253601,-0.8295242190361023,2681.622791,walking,2,2020-03-15 14:35:53.554 +0100,605972171.8674319,0,-6.16,101.2908
2020-03-15 14:36:13.968 +0100,2702.022150125,-0.2378997802734375,0.676361083984375,-0.814453125,2702.017126125,-0.1786356378081094,-0.2240541277198911,-0.5313667822233958,0.6087507009506226,0.2870591878890991,-0.2346636205911636,-0.03647792339324951,0.1492760181427002,0.003361761569976807,XArbitraryZVertical,-0.269504669212159,-0.08416636211685415,-0.05629357188608436,0.9576609374404247,-0.1915484368801117,0.5067121386528015,-0.8405665159225464,2681.622791,walking,2,2020-03-15 14:35:53.554 +0100,605972171.8674319,0,-6.16,101.2908
2020-03-15 14:36:14.000 +0100,2702.062340125,-0.25872802734375,0.814300537109375,-0.7118377685546875,2702.057317125,-0.1928061553869014,-0.2146152894311922,-0.4993337612530223,0.9242404699325562,0.6226435899734497,-0.7466325759887695,-0.06556388735771179,0.2820364236831665,0.09883421659469604,XArbitraryZVertical,-0.2545086612018369,-0.07965351922033979,-0.06639300080640032,0.9614950288122069,-0.1869681179523468,0.4788407385349274,-0.8577613234519958,2681.622791,walking,2,2020-03-15 14:35:53.554 +0100,605972171.8674319,0,-6.16,101.2908
2020-03-15 14:36:14.037 +0100,2702.102531125,-0.253082275390625,0.82427978515625,-0.7588043212890625,2702.097507125,-0.2317240847326908,-0.1964142338440009,-0.4456118652915876,1.417508721351624,1.170252799987793,-1.525221109390259,-0.07521495223045349,0.3927488923072815,0.1620811820030212,XArbitraryZVertical,-0.2294826172334223,-0.06956318370113902,-0.09068176088533805,0.9665793103570371,-0.1760964393615723,0.4310100674629211,-0.8849973678588867,2681.622791,walking,2,2020-03-15 14:35:53.554 +0100,605972171.8674319,0,-6.16,101.2908
2020-03-15 14:36:14.077 +0100,2702.142721125,-0.18353271484375,0.5626373291015625,-0.69708251953125,2702.137697125,-0.3011077682748012,-0.1651203166747683,-0.3668076252268294,1.673004388809204,1.670763611793518,-2.267528057098389,-0.06985978782176971,0.3083684146404266,0.2913091778755188,XArbitraryZVertical,-0.1918615064193991,-0.05290528515832494,-0.1320981314508321,0.9710510504325119,-0.1534365564584732,0.3586372435092926,-0.9207803606987,2681.622791,walking,2,2020-03-15 14:35:53.554 +0100,605972171.8674319,0,-6.16,101.2908
2020-03-15 14:36:14.117 +0100,2702.182911125,-0.0267333984375,0.390228271484375,-0.81976318359375,2702.177887125,-0.3961465636617172,-0.1277902752258463,-0.2904120244576183,1.437796354293823,1.696631908416748,-2.631720066070557,0.07416364550590515,0.1859264969825745,0.1276965737342834,XArbitraryZVertical,-0.1540101481479683,-0.0335290608119727,-0.1852539695541155,0.9699679129882718,-0.122106209397316,0.2863470315933228,-0.9503133296966553,2681.622791,walking,2,2020-03-15 14:35:53.554 +0100,605972171.8674319,0,-6.16,101.2908
2020-03-15 14:36:14.158 +0100,2702.223101125,0.0450439453125,0.133514404296875,-0.8343048095703125,2702.218077125,-0.4981665827361131,-0.08847192210134124,-0.231251667798711,0.968733012676239,1.560492753982544,-2.512790203094482,0.1207491904497147,-0.06836949288845062,0.1366416215896606,XArbitraryZVertical,-0.1225271026533061,-0.0141583536437249,-0.2396857536686423,0.9629835266022839,-0.08600452542304993,0.2291960567235947,-0.9695733189582825,2681.622791,walking,2,2020-03-15 14:35:53.554 +0100,605972171.8674319,0,-6.16,101.2908
2020-03-15 14:36:14.198 +0100,2702.263291125,0.0327911376953125,-0.0845794677734375,-0.7151947021484375,2702.258268125,-0.5884874388347804,-0.04451534720608007,-0.1934785414882035,0.5799090266227722,1.613194823265076,-1.983357667922974,0.09074388444423676,-0.2172226905822754,0.219062328338623,XArbitraryZVertical,-0.09883872821284966,0.006805542142611462,-0.2865313941680189,0.9529345854192459,-0.04367032274603844,0.1922736912965775,-0.9803692102432251,2681.622791,walking,2,2020-03-15 14:35:53.554 +0100,605972171.8674319,0,-6.16,101.2908
2020-03-15 14:36:14.238 +0100,2702.303481125,0.0720672607421875,-0.1315765380859375,-0.657501220703125,2702.298458125,-0.6563238469088387,0.01216046932869592,-0.1769228914533733,0.266024112701416,1.866967797279358,-1.352373600006104,0.03501138091087341,-0.3564068675041199,0.3104279041290283,XArbitraryZVertical,-0.08167809153947882,0.03420697104791388,-0.3215458797114935,0.9427443313779176,0.01197034865617752,0.1760013401508331,-0.9843171238899231,2681.622791,walking,2,2020-03-15 14:35:53.554 +0100,605972171.8674319,0,-6.16,101.2908
2020-03-15 14:36:14.279 +0100,2702.343672125,0.1804656982421875,-0.1021881103515625,-0.541900634765625,2702.338648125,-0.6965464727146359,0.08966561836248264,-0.1758757405806122,-0.2149233222007751,2.301539421081543,-0.6354728937149048,0.07927009463310242,-0.2983385622501373,0.426861584186554,XArbitraryZVertical,-0.06723283710434121,0.07190653498025495,-0.343314709184294,0.9340472515338187,0.08816415816545486,0.1749704331159592,-0.980618417263031,2681.622791,walking,2,2020-03-15 14:35:53.554 +0100,605972171.8674319,0,-6.16,101.2908
2020-03-15 14:36:14.318 +0100,2702.383862125,0.24627685546875,-0.047210693359375,-0.54840087890625,2702.378838125,-0.7096800364875173,0.1893890850693264,-0.1819079232892414,0.295556366443634,2.883925914764404,-0.05247323960065842,0.03835713863372803,-0.2156208753585815,0.4158810377120972,XArbitraryZVertical,-0.05207283204741072,0.1197122802331677,-0.3525071633851786,0.9266585691919609,0.1851527243852615,0.1809063404798508,-0.965914785861969,2681.622791,walking,2,2020-03-15 14:35:53.554 +0100,605972171.8674319,0,-6.16,101.2908
2020-03-15 14:36:14.358 +0100,2702.424052125,0.5433502197265625,0.034942626953125,-0.8036651611328125,2702.419028125,-0.7080926307439872,0.3145230967812389,-0.1566734558876488,0.6527971625328064,3.175864219665527,0.3942316770553589,0.1851168572902679,-0.1181463748216629,0.1791492700576782,XArbitraryZVertical,-0.01836618545793395,0.1732464951832349,-0.3528635440264635,0.9193126025487883,0.3055738508701324,0.1560332775115967,-0.9392966628074646,2681.622791,walking,2,2020-03-15 14:35:53.554 +0100,605972171.8674319,0,-6.16,101.2908
2020-03-15 14:36:14.400 +0100,2702.464242666667,0.677154541015625,0.0444793701171875,-0.8292388916015625,2702.459219666667,-0.6920179795530862,0.443555629754047,-0.1307714177437119,0.2345448732376099,3.142099380493164,0.8143531084060669,0.2013242542743683,-0.15191450715065,0.1028246879577637,XArbitraryZVertical,0.01447931906389791,0.228102382749501,-0.3436531756530432,0.9108578892569473,0.4254894256591797,0.1303990185260773,-0.8955193161964417,2681.622791,walking,2,2020-03-15 14:35:53.554 +0100,605972171.8674319,0,-6.16,101.2908
2020-03-15 14:36:14.439 +0100,2702.504433666667,0.8517913818359375,0.222198486328125,-1.143203735351562,2702.499409666667,-0.6630488243271032,0.5677866627819511,-0.112994699051235,-0.07122309505939484,2.732286214828491,0.7653886079788208,0.3357003927230835,0.08490744233131409,-0.2948523759841919,XArbitraryZVertical,0.03976595967834071,0.2820642835769507,-0.3269128040590291,0.9011029634888555,0.5343379378318787,0.1127544045448303,-0.837716817855835,2681.622791,walking,2,2020-03-15 14:35:53.554 +0100,605972171.8674319,0,-6.16,101.2908
2020-03-15 14:36:14.485 +0100,2702.544623666667,0.833709716796875,0.08917236328125,-0.954315185546875,2702.539599666667,-0.6469726298195587,0.6763453180216566,-0.08887917270812991,0.2296603620052338,2.462573766708374,0.5582279562950134,0.2320504784584045,0.05761498957872391,-0.1955801248550415,XArbitraryZVertical,0.06561981025079977,0.3275673790436617,-0.3135484785590306,0.8888649954299717,0.6234763264656067,0.08876220136880875,-0.776787281036377,2681.622791,walking,2,2020-03-15 14:35:53.554 +0100,605972171.8674319,0,-6.16,101.2908
2020-03-15 14:36:14.519 +0100,2702.584813666667,0.874267578125,0.0735321044921875,-1.007308959960938,2702.579789666667,-0.6375890026684818,0.7687109279537727,-0.07023379022210777,0.2354267835617065,2.095898151397705,0.4599443674087524,0.1605510711669922,0.05691410601139069,-0.2711862325668335,XArbitraryZVertical,0.08654066229634347,0.3660506005936817,-0.3028771637264714,0.8756616153659679,0.6934952735900879,0.07017606496810913,-0.7170353531837463,2681.622791,walking,2,2020-03-15 14:35:53.554 +0100,605972171.8674319,0,-6.16,101.2908
2020-03-15 14:36:14.559 +0100,2702.625003666667,0.882293701171875,-0.0111083984375,-0.8448028564453125,2702.619979666667,-0.632648559906988,0.8424604875798329,-0.04442709385979386,0.3036879897117615,1.561036944389343,0.6291675567626953,0.1485688090324402,-0.04349714517593384,-0.2279435992240906,XArbitraryZVertical,0.1078977415899151,0.3948064748429924,-0.2924445306915759,0.8642697485360596,0.745546817779541,0.04441247880458832,-0.6649718284606934,2681.622791,walking,2,2020-03-15 14:35:53.554 +0100,605972171.8674319,0,-6.16,101.2908
2020-03-15 14:36:14.601 +0100,2702.665193666667,0.875091552734375,0.0203094482421875,-0.7959747314453125,2702.660170666667,-0.6171252410886743,0.8942370047609304,-0.02693415402154974,-0.1144097521901131,1.026655316352844,0.5065737962722778,0.06895124912261963,-0.03846664726734161,-0.1761017441749573,XArbitraryZVertical,0.1197246750894377,0.4155990696312351,-0.2793585341454397,0.8572643694100291,0.7794487476348877,0.02693089842796326,-0.625886857509613,2681.622791,walking,2,2020-03-15 14:35:53.554 +0100,605972171.8674319,0,-6.16,101.2908
2020-03-15 14:36:14.640 +0100,2702.705384666667,0.8785552978515625,-0.021881103515625,-0.71380615234375,2702.700360666667,-0.609353214244273,0.9291985662540075,-0.0146366046668838,0.0867517963051796,0.707378625869751,0.2380366921424866,0.09217566251754761,-0.02006825804710388,-0.1427091956138611,XArbitraryZVertical,0.1281677175407208,0.4293797405570655,-0.2713075072419505,0.8518206310417392,0.8010547757148743,0.01463608164340258,-0.5984121561050415,2681.622791,walking,2,2020-03-15 14:35:53.554 +0100,605972171.8674319,0,-6.16,101.2908
2020-03-15 14:36:14.681 +0100,2702.745574666667,0.878631591796875,-0.0471954345703125,-0.656982421875,2702.740550666667,-0.6043867659739847,0.9514760900572795,-0.01045417168053995,-0.1733518540859222,0.4183401465415955,0.0952092632651329,0.06940382719039917,-0.06219653785228729,-0.08927547931671143,XArbitraryZVertical,0.1318680980332549,0.4386180142968712,-0.2668481147250052,0.8479488309725133,0.8142287731170654,0.01045398134738207,-0.5804500579833984,2681.622791,walking,2,2020-03-15 14:35:53.554 +0100,605972171.8674319,0,-6.16,101.2908
2020-03-15 14:36:14.720 +0100,2702.785764666667,0.8134613037109375,0.0742645263671875,-0.4874267578125,2702.780740666667,-0.5919888243815868,0.9638234384462265,-0.01804032659543915,-0.3121075630187988,0.3054476976394653,-0.001942888833582401,-0.03978526592254639,-0.05043381452560425,0.06871700286865234,XArbitraryZVertical,0.1275405988403074,0.4456320913865199,-0.2624588399581561,0.8463219453491887,0.8212447762489319,0.01803934760391712,-0.5702908635139465,2681.622791,walking,2,2020-03-15 14:35:53.554 +0100,605972171.8674319,0,-6.16,101.2908
2020-03-15 14:36:14.762 +0100,2702.825954666667,0.8374786376953125,-0.009368896484375,-0.682037353515625,2702.820930666667,-0.5946887898703694,0.9788295010278537,-0.02183602074168788,0.2549823820590973,0.4124821424484253,-0.2144151329994202,-0.01690685749053955,0.03036597371101379,-0.07838660478591919,XArbitraryZVertical,0.1285121851060031,0.4522764589771197,-0.2634803656647581,0.8423234259957686,0.8296470046043396,0.02183428592979908,-0.5578612685203552,2681.622791,walking,2,2020-03-15 14:35:53.554 +0100,605972171.8674319,0,-6.16,101.2908
2020-03-15 14:36:14.800 +0100,2702.866144666667,0.7769927978515625,-0.01416015625,-0.6222076416015625,2702.861121666667,-0.6084493754320988,0.9920427785896284,-0.02467102105243831,0.3019640445709229,0.3253409266471863,-0.2320479303598404,-0.08333909511566162,-0.02611818909645081,-0.07978987693786621,XArbitraryZVertical,0.1322053008455927,0.4572904191372228,-0.2690333380800352,0.8372743605138128,0.8368903398513794,0.02466851845383644,-0.5468144416809082,2681.622791,walking,2,2020-03-15 14:35:53.554 +0100,605972171.8674319,0,-6.16,101.2908
2020-03-15 14:36:14.841 +0100,2702.906334666667,0.7975616455078125,-0.035797119140625,-0.6048583984375,2702.901311666667,-0.6220410864113747,1.002756334673365,-0.0263015238795632,0.10178492218256,0.2364433109760284,-0.1417215019464493,-0.04262089729309082,-0.07103733718395233,-0.07028555870056152,XArbitraryZVertical,0.1360974762285543,0.4610640607542409,-0.2743585360411572,0.8328414170193413,0.8426654934883118,0.02629849128425121,-0.537794828414917,2681.622791,walking,2,2020-03-15 14:35:53.554 +0100,605972171.8674319,0,-6.16,101.2908
2020-03-15 14:36:14.881 +0100,2702.946525666667,0.8255462646484375,-0.0004730224609375,-0.602630615234375,2702.941501666667,-0.6219982934006515,1.003942362988898,-0.03037369670850195,-0.1651761531829834,0.08923878520727158,-0.1113953813910484,-0.008400976657867432,-0.0543711930513382,-0.07140803337097168,XArbitraryZVertical,0.1345469041950056,0.462093705172973,-0.2751848048401668,0.8322499385427288,0.843205451965332,0.03036902658641338,-0.536733090877533,2681.622791,walking,2,2020-03-15 14:35:53.554 +0100,605972171.8674319,0,-6.16,101.2908
2020-03-15 14:36:14.923 +0100,2702.986715666667,0.8161163330078125,-0.056610107421875,-0.5878143310546875,2702.981691666667,-0.6290186933881603,1.005516583671906,-0.03252100733822697,0.1993489563465118,0.1205765083432198,-0.2585088312625885,-0.03685164451599121,-0.09246717393398285,-0.03460991382598877,XArbitraryZVertical,0.1354899130830174,0.4625560019858402,-0.2784845229047602,0.8307411775224626,0.8439923524856567,0.0325152762234211,-0.5353688597679138,2681.622791,walking,2,2020-03-15 14:35:53.554 +0100,605972171.8674319,0,-6.16,101.2908
2020-03-15 14:36:14.961 +0100,2703.026905666667,0.8695068359375,-0.035064697265625,-0.5531158447265625,2703.021881666667,-0.6488650078276607,1.006750158053069,-0.03137985928282052,0.552556574344635,0.1484141498804092,-0.3194325566291809,0.02201294898986816,-0.05284392833709717,-0.04518401622772217,XArbitraryZVertical,0.1407250955603621,0.4615442161870087,-0.2863695117368977,0.8277474360191709,0.8446828126907349,0.03137470781803131,-0.5343467593193054,2681.622791,walking,2,2020-03-15 14:35:53.554 +0100,605972171.8674319,0,-6.16,101.2908
2020-03-15 14:36:15.002 +0100,2703.067095666667,0.86578369140625,-0.022705078125,-0.4867706298828125,2703.062072666667,-0.6732914764004092,1.010503678636219,-0.02831403367948288,0.3420171439647675,0.1426402032375336,-0.3013747930526733,0.02111059427261353,-0.06992106139659882,0.04136621952056885,XArbitraryZVertical,0.1481771247643059,0.4609045305772714,-0.2954885526681,0.8235879020721701,0.846760094165802,0.02831025049090385,-0.5312210917472839,2681.622791,walking,2,2020-03-15 14:35:53.554 +0100,605972171.8674319,0,-6.16,101.2908
2020-03-15 14:36:15.042 +0100,2703.107285666667,0.7866058349609375,0.0792236328125,-0.5008392333984375,2703.102262666667,-0.6908058756999053,1.013640075459031,-0.0314120390960194,0.476231575012207,0.1761079430580139,-0.3927595317363739,-0.0528450608253479,0.01609362661838531,0.01915830373764038,XArbitraryZVertical,0.1514041599386518,0.4613240465106299,-0.3031509434626564,0.8199733958029755,0.8483434915542603,0.03140687197446823,-0.5285137891769409,2681.622791,walking,2,2020-03-15 14:35:53.554 +0100,605972171.8674319,0,-6.16,101.2908
2020-03-15 14:36:15.082 +0100,2703.147476666667,0.779510498046875,0.0675048828125,-0.40533447265625,2703.142452666667,-0.7294480349902119,1.022998281312081,-0.03245447637338202,1.001278758049011,0.3026407361030579,-0.6588593721389771,-0.07606649398803711,0.03595627844333649,0.1003971099853516,XArbitraryZVertical,0.1613531854804773,0.4622747122821715,-0.3184183791366969,0.8117123597335999,0.8532238602638245,0.03244877979159355,-0.5205344557762146,2681.622791,walking,2,2020-03-15 14:35:53.554 +0100,605972171.8674319,0,-6.16,101.2908
2020-03-15 14:36:15.122 +0100,2703.187666666667,0.7830963134765625,0.10089111328125,-0.4515838623046875,2703.182642666667,-0.774739610073653,1.031909661622311,-0.03506476222516022,0.7860388159751892,0.1846321821212769,-0.7263785004615784,-0.09449648857116699,0.038565993309021,0.0861971378326416,XArbitraryZVertical,0.1722229829438272,0.4625003581091991,-0.3365371673247018,0.8019822296490603,0.8577529788017273,0.03505757823586464,-0.5128653049468994,2681.622791,walking,2,2020-03-15 14:35:53.554 +0100,605972171.8674319,0,-6.16,101.2908
2020-03-15 14:36:15.163 +0100,2703.227856666667,0.7413177490234375,0.0241241455078125,-0.4102783203125,2703.222832666667,-0.8246609664298179,1.038287218623591,-0.03781966076459847,1.189759373664856,0.1544768810272217,-0.6939380168914795,-0.1562570929527283,0.01504567265510559,0.06710028648376465,XArbitraryZVertical,0.1837476444293395,0.4610531574354014,-0.3564779411559053,0.7915745420613258,0.8609198331832886,0.03781064599752426,-0.5073335766792297,2681.622791,walking,2,2020-03-15 14:35:53.554 +0100,605972174.4366144,0,-6.31,101.293
2020-03-15 14:36:15.203 +0100,2703.268046666667,0.783233642578125,0.007476806640625,-0.3721466064453125,2703.263023666667,-0.8787396426400816,1.041040932929972,-0.03923683115484339,0.9458239674568176,0.06982729583978653,-0.746123194694519,-0.1127888560295105,-0.02073320746421814,0.1526364088058472,XArbitraryZVertical,0.1961063094947893,0.4572478977175991,-0.3777920892367095,0.7808583867620004,0.8622665405273438,0.03922676295042038,-0.5049333572387695,2681.622791,walking,2,2020-03-15 14:35:53.554 +0100,605972174.4366144,0,-6.31,101.293
2020-03-15 14:36:15.243 +0100,2703.308237666667,0.8407440185546875,0.0834197998046875,-0.393096923828125,2703.303213666667,-0.9146498686610504,1.03902267467012,-0.05205758542395564,0.4805602729320526,0.01551751513034105,-0.6765415072441101,-0.08323341608047485,0.03338444232940674,0.1254992485046387,XArbitraryZVertical,0.198865249105749,0.4552632675460707,-0.3947553994955618,0.7728881528890299,0.8607414364814758,0.05203407630324364,-0.5063759684562683,2681.622791,walking,2,2020-03-15 14:35:53.554 +0100,605972174.4366144,0,-6.31,101.293
2020-03-15 14:36:15.283 +0100,2703.348427666667,0.9946441650390625,0.2542266845703125,-0.44140625,2703.343403666667,-0.9417454435070204,1.040784811825948,-0.06827638500740375,0.5061466097831726,0.2829060256481171,-0.6950125694274902,0.109664261341095,0.1501754224300385,0.07112044095993042,XArbitraryZVertical,0.1990491483168068,0.4562858058169833,-0.4085046922751526,0.765053348710255,0.8607909679412842,0.06822334975004196,-0.5043653845787048,2681.622791,walking,2,2020-03-15 14:35:53.554 +0100,605972174.4366144,0,-6.31,101.293
2020-03-15 14:36:15.323 +0100,2703.388617666667,0.982818603515625,0.1983184814453125,-0.3636627197265625,2703.383593666667,-0.9771546004331169,1.054497674342283,-0.08113156402952861,0.8366533517837524,0.5146281123161316,-0.7589493989944458,0.1529338359832764,0.1093104481697083,0.06500601768493652,XArbitraryZVertical,0.205026227399387,0.4603735833787199,-0.4233114108290815,0.7528797621939601,0.8667917847633362,0.0810425877571106,-0.4920408129692078,2681.622791,walking,2,2020-03-15 14:35:53.554 +0100,605972174.4366144,0,-6.31,101.293
2020-03-15 14:36:15.365 +0100,2703.428807666667,1.055099487304688,0.013214111328125,-0.4637298583984375,2703.423783666667,-1.036082220823071,1.075500968149467,-0.08360064343336675,1.343603253364563,0.7016436457633972,-0.7961597442626953,0.1972150206565857,-0.05809777975082397,0.07171261310577393,XArbitraryZVertical,0.2222306946369425,0.4623826653957896,-0.4435153478579602,0.734921704237062,0.8767555356025696,0.08350329846143723,-0.4736315906047821,2681.622791,walking,2,2020-03-15 14:35:53.554 +0100,605972174.4366144,0,-6.31,101.293
2020-03-15 14:36:15.403 +0100,2703.468996541667,1.045806884765625,0.0574798583984375,-0.286956787109375,2703.463973541667,-1.083595923530227,1.10192793047267,-0.08798736731369849,0.373065322637558,0.7529533505439758,-0.4612685739994049,0.1433492302894592,-0.09007149934768677,0.1115646362304688,XArbitraryZVertical,0.2375955000608495,0.4674225532365112,-0.4586686572075973,0.7174173502949137,0.8886293172836304,0.08787388354539871,-0.4501290619373322,2681.622791,walking,2,2020-03-15 14:35:53.554 +0100,605972174.4366144,0,-6.31,101.293
2020-03-15 14:36:15.443 +0100,2703.509187541667,1.03875732421875,0.242340087890625,-0.4969024658203125,2703.504163541667,-1.090113278601442,1.133066609675541,-0.09833954014125554,0.06585239619016647,0.8454886674880981,-0.1500770598649979,0.1493605971336365,0.06806299090385437,-0.01505583524703979,XArbitraryZVertical,0.2424681135964601,0.4798864830025353,-0.4594929190344111,0.7069543317908558,0.9013404250144958,0.0981811136007309,-0.4218363463878632,2681.622791,walking,2,2020-03-15 14:35:53.554 +0100,605972174.4366144,0,-6.31,101.293
2020-03-15 14:36:15.484 +0100,2703.549377541667,0.9733734130859375,0.2726287841796875,-0.4898223876953125,2703.544353541667,-1.103862217688988,1.169660589595507,-0.0916710242494494,0.6269387006759644,0.9205236434936523,0.1506520062685013,0.08562380075454712,0.1612950563430786,-0.1391321420669556,XArbitraryZVertical,0.256626237207774,0.4896229518357803,-0.4582713980132776,0.6959882766748606,0.9167525768280029,0.09154268354177475,-0.3888246715068817,2681.622791,walking,2,2020-03-15 14:35:53.554 +0100,605972174.4366144,0,-6.31,101.293
2020-03-15 14:36:15.524 +0100,2703.589567541667,1.01727294921875,0.3091888427734375,-0.4314117431640625,2703.584543541667,-1.111867223519014,1.201466601524606,-0.08365475382900751,-0.4690596759319305,0.6457231640815735,-0.003879738971590996,0.09304159879684448,0.1978755593299866,-0.1312417387962341,XArbitraryZVertical,0.2687412269791665,0.4979097744421419,-0.4550369211466956,0.6876083894963871,0.9293082356452942,0.08355721831321716,-0.3597280085086823,2681.622791,walking,2,2020-03-15 14:35:53.554 +0100,605972174.4366144,0,-6.31,101.293
2020-03-15 14:36:15.564 +0100,2703.629757541667,0.8865966796875,0.36370849609375,-0.406494140625,2703.624733541667,-1.043868977473587,1.221329114878859,-0.1171958868923815,-2.782083988189697,-0.07893763482570648,-0.2125547230243683,0.09526675939559937,0.1922910511493683,-0.09336519241333008,XArbitraryZVertical,0.2437968134783495,0.5201334774684504,-0.4368614948667225,0.6922255865482394,0.9331102967262268,0.116927795112133,-0.3400485515594482,2681.622791,walking,2,2020-03-15 14:35:53.554 +0100,605972174.4366144,0,-6.31,101.293
2020-03-15 14:36:15.604 +0100,2703.669947541667,1.153488159179688,0.5479278564453125,-0.4706268310546875,2703.664924541667,-0.9335411461869751,1.238638866944562,-0.1617109714320153,-3.061327457427979,0.4480637013912201,-0.8297032117843628,-0.289929986000061,0.3825560510158539,0.03865319490432739,XArbitraryZVertical,0.2016343829083039,0.546286639377244,-0.4070984532339775,0.7036939768396344,0.9330072999000549,0.1610070914030075,-0.3218289613723755,2681.622791,walking,2,2020-03-15 14:35:53.554 +0100,605972174.4366144,0,-6.31,101.293
2020-03-15 14:36:15.644 +0100,2703.710138541667,0.7971954345703125,0.243896484375,-0.2241973876953125,2703.705114541667,-0.780678456067925,1.272513251423468,-0.2207455141050794,-4.865598678588867,0.3459525108337402,-0.5347496271133423,-0.1679738759994507,0.3558405339717865,0.03747761249542236,XArbitraryZVertical,0.1427829604027351,0.5798610286945396,-0.364711452805732,0.7143947994347345,0.9326485395431519,0.2189571112394333,-0.2867484390735626,2681.622791,walking,2,2020-03-15 14:35:53.554 +0100,605972174.4366144,0,-6.31,101.293
2020-03-15 14:36:15.685 +0100,2703.750328541667,1.139816284179688,0.2777557373046875,-0.0246734619140625,2703.745304541667,-0.5151913862406302,1.351633117998115,-0.3400893050427979,-8.668233871459961,-0.2033796459436417,-1.982597351074219,0.4208243489265442,0.1875300705432892,0.1721351146697998,XArbitraryZVertical,0.02938697518641744,0.6298064139586571,-0.2982575142516296,0.7166050120895056,0.9201746582984924,0.3335712850093842,-0.2049605697393417,2681.622791,walking,2,2020-03-15 14:35:53.554 +0100,605972174.4366144,0,-6.31,101.293
2020-03-15 14:36:15.725 +0100,2703.790518541667,1.2811279296875,0.4073028564453125,0.0543670654296875,2703.785494541667,-0.1199136674291773,1.507455373710272,-0.4833783220579936,-10.41444492340088,-0.2237863093614578,-2.211716175079346,0.3868338465690613,-0.02025634050369263,0.05942916870117188,XArbitraryZVertical,-0.1343859942118747,0.6737337497874103,-0.2059238660927622,0.6968634393483678,0.8836542963981628,0.4647730886936188,-0.05604647845029831,2681.622791,walking,2,2020-03-15 14:35:53.554 +0100,605972174.4366144,0,-6.31,101.293
2020-03-15 14:36:15.765 +0100,2703.830708541667,0.94354248046875,0.2904815673828125,0.4027252197265625,2703.825685541667,0.462893411027115,1.796590529840398,-0.5257963497062995,-14.37484836578369,0.305310070514679,-1.46275806427002,0.1902135014533997,-0.2045260667800903,0.1686587333679199,XArbitraryZVertical,-0.3308495758449517,0.6981106131489104,-0.059889791821298,0.6321340241893866,0.8429698944091797,0.5019019246101379,0.1936397403478622,2681.622791,walking,2,2020-03-15 14:35:53.554 +0100,605972174.4366144,0,-6.31,101.293
2020-03-15 14:36:15.805 +0100,2703.870899541667,0.778656005859375,0.6529388427734375,0.0500946044921875,2703.865875541667,1.082266189236256,2.090928811994594,-0.3441553553662067,-13.09183692932129,0.5401719212532043,-0.8312530517578125,0.02800589799880981,0.4079425930976868,-0.3217412233352661,XArbitraryZVertical,-0.5126702928029392,0.6863636024069774,0.127536164090818,0.4998086017580445,0.8168688416481018,0.3374016880989075,0.4678516387939453,2681.622791,walking,2,2020-03-15 14:35:53.554 +0100,605972174.4366144,0,-6.31,101.293
2020-03-15 14:36:15.845 +0100,2703.911089541667,0.6052398681640625,0.5635833740234375,0.047454833984375,2703.906065541667,1.428456311686602,2.185757471680968,-0.1533605378148638,-5.838741302490234,-0.1020837277173996,-0.4093635380268097,-0.2133108377456665,0.3967844545841217,-0.5380128622055054,XArbitraryZVertical,-0.6065537548737747,0.6458872637829434,0.2489881444494712,0.3910590148468109,0.8072094917297363,0.1527600884437561,0.5701556205749512,2681.622791,walking,2,2020-03-15 14:35:53.554 +0100,605972174.4366144,0,-6.31,101.293
2020-03-15 14:36:15.886 +0100,2703.951279541667,0.635101318359375,0.13836669921875,0.2971038818359375,2703.946255541667,1.531155196894229,2.183157242488039,-0.09043372560139,-1.060092210769653,-0.6124152541160583,0.05905984342098236,-0.2113310098648071,0.0306607186794281,-0.3246113061904907,XArbitraryZVertical,-0.6292944279303871,0.6246716275609225,0.2902656011133037,0.3598886799006959,0.8149495720863342,0.09031051397323608,0.5724522471427917,2681.622791,walking,2,2020-03-15 14:35:53.554 +0100,605972174.4366144,0,-6.31,101.293
2020-03-15 14:36:15.926 +0100,2703.991469541667,0.7763214111328125,0.16754150390625,0.3471527099609375,2703.986445541667,1.503934454190989,2.14893261487255,-0.08655844441248349,2.586410284042358,-0.9343619346618652,0.9938988089561462,-0.08367973566055298,0.005422383546829224,-0.174659252166748,XArbitraryZVertical,-0.6151391723188773,0.6275451211258682,0.2971915771742563,0.3734542248837748,0.834347128868103,0.08645039796829224,0.5444181561470032,2681.622791,walking,2,2020-03-15 14:35:53.554 +0100,605972174.4366144,0,-6.31,101.293
2020-03-15 14:36:15.966 +0100,2704.031659541667,0.8845062255859375,0.2503509521484375,0.32928466796875,2704.026636541667,1.288054647268839,2.08353739320615,-0.1432830987237856,8.145307540893555,-1.01008141040802,2.118425846099854,0.004694521427154541,0.01843029260635376,-0.1496562957763672,XArbitraryZVertical,-0.5459021750311374,0.6669041099450475,0.2528349891258774,0.4396636818431534,0.8624733686447144,0.1427933275699615,0.4855405390262604,2681.622791,walking,2,2020-03-15 14:35:53.554 +0100,605972174.4366144,0,-6.31,101.293
2020-03-15 14:36:16.006 +0100,2704.071850541667,0.9038543701171875,0.4862213134765625,0.539154052734375,2704.066826541667,0.8532137351555622,1.962818894875568,-0.246365358153812,13.15878009796143,-0.5581097602844238,2.479261636734009,0.01585537195205688,0.2183525115251541,0.09024035930633545,XArbitraryZVertical,-0.403541795500873,0.7227828786793283,0.1352733351518767,0.5444630386187961,0.8962340354919434,0.2438806891441345,0.370522141456604,2681.622791,walking,2,2020-03-15 14:35:53.554 +0100,605972174.4366144,0,-6.31,101.293
2020-03-15 14:36:16.046 +0100,2704.112040541667,0.9306793212890625,0.565826416015625,0.6082000732421875,2704.107016541667,0.2118607745263293,1.781706164854386,-0.335333389824654,16.46585845947266,0.9451712369918823,2.231001377105713,-0.05623894929885864,0.3699346780776978,0.3893560171127319,XArbitraryZVertical,-0.1854042854191276,0.7513120283436445,-0.06349473805854973,0.6301776870377369,0.9233757853507996,0.3290840089321136,0.197689026594162,2681.622791,walking,2,2020-03-15 14:35:53.554 +0100,605972174.4366144,0,-6.31,101.293
2020-03-15 14:36:16.087 +0100,2704.152230541667,1.0355224609375,0.4006195068359375,0.5048675537109375,2704.147206541667,-0.4621146458101193,1.623069061619286,-0.3324382602108862,13.93705749511719,2.42215371131897,1.770659327507019,0.04579794406890869,0.06750938296318054,0.574629545211792,XArbitraryZVertical,0.05294946726180787,0.7224198868051318,-0.2722947587011795,0.6333731074934855,0.9439584016799927,0.326348751783371,0.04938827827572823,2681.622791,walking,2,2020-03-15 14:35:53.554 +0100,605972174.4366144,0,-6.31,101.293
2020-03-15 14:36:16.127 +0100,2704.192420541667,1.146133422851562,0.21881103515625,0.27435302734375,2704.187397541667,-0.9740838348307126,1.567120648858396,-0.286786420732651,10.1275577545166,2.438013076782227,0.9981641173362732,0.1849778890609741,0.1423590481281281,0.3678693771362305,XArbitraryZVertical,0.2374752904812329,0.6647125039460349,-0.4172739749322351,0.5724029132442856,0.9591512680053711,0.2828713655471802,-0.003525546984747052,2681.622791,walking,2,2020-03-15 14:35:53.554 +0100,605972174.4366144,0,-6.31,101.293
2020-03-15 14:36:16.168 +0100,2704.232611541667,1.031890869140625,0.1933746337890625,0.166900634765625,2704.227587541667,-1.275033879670292,1.566124359054599,-0.2511953636236838,4.15267276763916,1.52336597442627,0.7221691608428955,0.09758186340332031,-0.1320167481899261,0.1339600086212158,XArbitraryZVertical,0.3452346110100366,0.6152644962279988,-0.4895428120597131,0.512455337788396,0.9686053991317749,0.2485619783401489,-0.004525326192378998,2681.622791,walking,2,2020-03-15 14:35:53.554 +0100,605972174.4366144,0,-6.31,101.293
2020-03-15 14:36:16.207 +0100,2704.272801541667,1.070053100585938,0.1094970703125,0.1465606689453125,2704.267777541667,-1.322919977101532,1.603578018278066,-0.2240526468453791,-1.878421545028687,0.8430533409118652,0.7020096182823181,0.07518064975738525,-0.09843528270721436,0.1080977916717529,XArbitraryZVertical,0.3773015147055094,0.6112461532950633,-0.4878902509645164,0.4959684440647434,0.9744810461997986,0.2221827805042267,0.03195658698678017,2681.622791,walking,2,2020-03-15 14:35:53.554 +0100,605972174.4366144,0,-6.31,101.293
2020-03-15 14:36:16.248 +0100,2704.312991541667,1.1370849609375,0.3537139892578125,-0.1596832275390625,2704.307967541667,-1.12458969438145,1.654385780049978,-0.1840313669339515,-6.898086547851562,-0.08137592673301697,0.7205952405929565,0.1411780714988708,0.0850101113319397,-0.1117513179779053,XArbitraryZVertical,0.3381164190696189,0.6532368900554074,-0.4165903243240122,0.5342390557998312,0.9796813726425171,0.1829943358898163,0.08208229392766953,2681.622791,walking,2,2020-03-15 14:35:53.554 +0100,605972174.4366144,0,-6.31,101.293
2020-03-15 14:36:16.288 +0100,2704.353181541667,1.289443969726562,0.05377197265625,-0.352142333984375,2704.348158541667,-0.868216433411435,1.684656536773738,-0.1356758892268639,-5.924165725708008,-0.4557113945484161,0.4344427585601807,0.2598021626472473,-0.01811891794204712,-0.5057947635650635,XArbitraryZVertical,0.2721876901157212,0.6944054919931489,-0.3252517157438092,0.5813141944480307,0.9843945503234863,0.1352600157260895,0.1125702485442162,2681.622791,walking,2,2020-03-15 14:35:53.554 +0100,605972174.4366144,0,-6.31,101.293
2020-03-15 14:36:16.328 +0100,2704.393372541667,1.082382202148438,0.211639404296875,-0.085968017578125,2704.388348541667,-0.6575700683299746,1.686316637066925,-0.09914265502104878,-4.591351985931396,-0.6019029021263123,0.07483441382646561,0.1337915062904358,0.1156951487064362,-0.2240931987762451,XArbitraryZVertical,0.2096321489578835,0.7165215517569717,-0.2495151560679691,0.6167604937398181,0.9884571433067322,0.09898031502962112,0.1146975457668304,2681.622791,walking,2,2020-03-15 14:35:53.554 +0100,605972174.4366144,0,-6.31,101.293
2020-03-15 14:36:16.368 +0100,2704.433562541667,0.976409912109375,0.2578277587890625,-0.0293426513671875,2704.428538541667,-0.5065212364250806,1.678575427879506,-0.09003480657127902,-2.839860200881958,-0.4511293470859528,-0.4638379812240601,-0.01712268590927124,0.1853854358196259,-0.1718072891235352,XArbitraryZVertical,0.1571688850816841,0.7272313040490568,-0.1996249248741117,0.6376382129524821,0.9901705980300903,0.08991321176290512,0.1071348562836647,2681.622791,walking,2,2020-03-15 14:35:53.554 +0100,605972174.4366144,0,-6.31,101.293
2020-03-15 14:36:16.408 +0100,2704.473754,1.045013427734375,0.1663360595703125,0.13446044921875,2704.46873,-0.4189151563724967,1.670636626712302,-0.1039317516203256,-1.339337110519409,-0.3371626436710358,-0.5180014967918396,0.02293246984481812,0.0227348655462265,0.01059901714324951,XArbitraryZVertical,0.1198848915844117,0.7315708792345457,-0.1769942227450088,0.6473830525805354,0.9896510243415833,0.1037447452545166,0.09913668036460876,2681.622791,walking,2,2020-03-15 14:35:53.554 +0100,605972174.4366144,0,-6.31,101.293
2020-03-15 14:36:16.448 +0100,2704.513944,1.059707641601562,0.1442718505859375,0.1847076416015625,2704.508921,-0.4071369928451137,1.657235731880437,-0.1165758258521329,0.4116244316101074,-0.4787096381187439,0.06920862197875977,0.05678528547286987,0.07336943596601486,0.08005011081695557,XArbitraryZVertical,0.11018128659347,0.7285142433458397,-0.1784577793690349,0.6521348143509281,0.9895043969154358,0.1163119599223137,0.08574583381414413,2681.622791,walking,2,2020-03-15 14:35:53.554 +0100,605972174.4366144,0,-6.31,101.293
2020-03-15 14:36:16.489 +0100,2704.554135,1.009918212890625,0.2131805419921875,0.14837646484375,2704.549111,-0.4191001197675615,1.63525643355937,-0.1007285487470028,0.1032844558358192,-0.620517909526825,0.8167731165885925,0.04460513591766357,0.0861782431602478,0.1026378870010376,XArbitraryZVertical,0.1178843311237219,0.7198248184853733,-0.1780185523512465,0.6605035786200854,0.9928649067878723,0.1005582958459854,0.06408897042274475,2681.622791,walking,2,2020-03-15 14:35:53.554 +0100,605972174.4366144,0,-6.31,101.293
2020-03-15 14:36:16.529 +0100,2704.594325,0.9364471435546875,0.306396484375,0.1543121337890625,2704.589301,-0.417256210903781,1.603043882128314,-0.0564912865711176,-0.2490601092576981,-0.9789891839027405,1.289159774780273,-0.02525019645690918,0.2314107865095139,0.1192319393157959,XArbitraryZVertical,0.1295179633817023,0.706626041578293,-0.163866160736242,0.6760566006847559,0.9978856444358826,0.05646124482154846,0.03219053149223328,2681.622791,walking,2,2020-03-15 14:35:53.554 +0100,605972174.4366144,0,-6.31,101.293
2020-03-15 14:36:16.569 +0100,2704.634515,0.9643707275390625,0.2394561767578125,0.1709747314453125,2704.629491,-0.4084672517224945,1.556927872300682,-0.0003138568335460469,-0.5567182898521423,-1.341205835342407,1.431764364242554,-0.0358283519744873,0.2659978270530701,0.1854937076568604,XArbitraryZVertical,0.142305794543379,0.6876154853473889,-0.1445120203747664,0.6971731188647236,0.9999038577079773,0.0003138568426948041,-0.01386801060289145,2681.622791,walking,2,2020-03-15 14:35:53.554 +0100,605972174.4366144,0,-6.31,101.293
2020-03-15 14:36:16.609 +0100,2704.674705,0.9764251708984375,0.2181549072265625,0.2068634033203125,2704.669682,-0.369962155178627,1.49771436879126,0.04837345053035499,-1.401122689247131,-1.651576638221741,1.056922435760498,-0.06326240301132202,0.3808286190032959,0.2360427975654602,XArbitraryZVertical,0.1425939655818952,0.6657335878893769,-0.1184979310600014,0.722788976130746,0.9961639642715454,-0.04835458844900131,-0.07293149828910828,2681.622791,walking,2,2020-03-15 14:35:53.554 +0100,605972174.4366144,0,-6.31,101.293
2020-03-15 14:36:16.649 +0100,2704.714896,0.8826904296875,0.3775482177734375,0.209381103515625,2704.709872,-0.2743366292980953,1.424882921420067,0.06989258110694017,-2.59805965423584,-1.558944821357727,0.4847654104232788,-0.1408631801605225,0.4089169204235077,0.3630695939064026,XArbitraryZVertical,0.1155216667103272,0.6435325522418718,-0.08079159126832801,0.7523252300498172,0.9869579076766968,-0.06983569264411926,-0.1450411975383759,2704.686931,walking,2,2020-03-15 14:36:16.618 +0100,605972174.4366144,0,-6.31,101.293
2020-03-15 14:36:16.690 +0100,2704.755086,0.8357696533203125,0.2945404052734375,0.208740234375,2704.750062,-0.1811682165608089,1.357013295834688,0.06343932942657148,-2.152039289474487,-1.371038436889648,0.02964992448687553,-0.1238642930984497,0.3959929347038269,0.4129148721694946,XArbitraryZVertical,0.08133586283094586,0.6225100048258455,-0.05056558159641142,0.7767296124656009,0.9752694964408875,-0.06339678913354874,-0.2117315381765366,2704.686931,walking,2,2020-03-15 14:36:16.618 +0100,605972174.4366144,0,-6.31,101.293
2020-03-15 14:36:16.730 +0100,2704.795276,0.953765869140625,0.451507568359375,0.2018890380859375,2704.790252,-0.1103604054886708,1.308684799229187,0.0373457014623552,-1.305960059165955,-0.9064235687255859,-0.5032614469528198,-0.05190753936767578,0.4667195677757263,0.4524936079978943,XArbitraryZVertical,0.0483543891741676,0.6067882097207199,-0.03240575385215422,0.7927292753470601,0.9651714563369751,-0.03733702003955841,-0.2589398324489594,2704.686931,walking,2,2020-03-15 14:36:16.618 +0100,605972174.4366144,0,-6.31,101.293
2020-03-15 14:36:16.770 +0100,2704.835466,0.9204254150390625,0.2250823974609375,0.31317138671875,2704.830443,-0.0648804406012071,1.283158490992054,-0.008384825680508485,-1.979922890663147,-0.246996134519577,-1.067020654678345,-0.004160404205322266,0.2583083808422089,0.5710127353668213,XArbitraryZVertical,0.0160536625593875,0.598250211142795,-0.0284924189291009,0.8006417150688698,0.9588829874992371,0.008384727872908115,-0.2836779356002808,2704.686931,walking,2,2020-03-15 14:36:16.618 +0100,605972174.4366144,0,-6.31,101.293
2020-03-15 14:36:16.810 +0100,2704.875657,0.8653717041015625,0.3118438720703125,0.215545654296875,2704.870633,0.0007354144821589764,1.29685853388094,-0.07925322194668633,-1.493078708648682,0.8022676110267639,-1.277174711227417,-0.1103761196136475,0.2422252744436264,0.5134311318397522,XArbitraryZVertical,-0.0317973624276352,0.6034494677851922,-0.0236327978359061,0.7964164273033273,0.9596912264823914,0.07917027920484543,-0.2696753442287445,2704.686931,walking,2,2020-03-15 14:36:16.618 +0100,605972174.4366144,0,-6.31,101.293
2020-03-15 14:36:16.850 +0100,2704.915847,1.003402709960938,0.2074737548828125,0.12982177734375,2704.910823,-0.009689712048973202,1.346174383456866,-0.1234945407614104,1.397296905517578,1.619054436683655,-0.9940558671951294,0.007975220680236816,0.1454038321971893,0.3502190709114075,XArbitraryZVertical,-0.04523447229990813,0.622441229590449,-0.04224947426831106,0.7802152485470204,0.9674540162086487,0.1231808811426163,-0.2210415154695511,2704.686931,walking,2,2020-03-15 14:36:16.618 +0100,605972174.4366144,0,-6.31,101.293
2020-03-15 14:36:16.891 +0100,2704.956037,1.133331298828125,0.0218505859375,0.2841949462890625,2704.951013,-0.09117280532588801,1.409040718177095,-0.1468520941641265,1.886101841926575,2.002668619155884,-0.9382336735725403,0.1262114644050598,-0.1209958791732788,0.4112821221351624,XArbitraryZVertical,-0.02640149193408037,0.6477994467296434,-0.08209136949979351,0.7569146388962893,0.976323127746582,0.1463248431682587,-0.159317672252655,2704.686931,walking,2,2020-03-15 14:36:16.618 +0100,605972174.4366144,0,-6.31,101.293
2020-03-15 14:36:16.931 +0100,2704.996227,1.123397827148438,0.1370086669921875,0.2547454833984375,2704.991204,-0.168715908930874,1.482853794562538,-0.1771069782981882,1.766886949539185,2.247952461242676,-1.027450323104858,0.1800559163093567,-0.07394945621490479,0.3724769353866577,XArbitraryZVertical,-0.008311563518326015,0.675798228788163,-0.12141050851247,0.7269711527173384,0.9805533885955811,0.1761825531721115,-0.08645534515380859,2704.686931,walking,2,2020-03-15 14:36:16.618 +0100,605972174.4366144,0,-6.31,101.293
2020-03-15 14:36:16.971 +0100,2705.036418,1.104949951171875,0.0970306396484375,0.133331298828125,2705.031394,-0.2669935350034404,1.554339179897499,-0.2149287970688907,3.107660531997681,2.196080923080444,-1.080315470695496,0.1234624981880188,-0.06568057835102081,0.1521661877632141,XArbitraryZVertical,0.01701647519993264,0.7011929514507549,-0.1688869629727207,0.692471020078166,0.9768593311309814,0.2132778614759445,-0.01607776805758476,2704.686931,walking,2,2020-03-15 14:36:16.618 +0100,605972174.4366144,0,-6.31,101.293
2020-03-15 14:36:17.011 +0100,2705.076608,1.070816040039062,0.15899658203125,0.1314239501953125,2705.071584,-0.4285423865350041,1.603023427317815,-0.2607417419601112,4.821297645568848,2.109582185745239,-1.079391956329346,0.08102059364318848,-0.1127941608428955,0.09592282772064209,XArbitraryZVertical,0.06309861783304971,0.715251541011672,-0.2379171477051389,0.6540865932610191,0.9656973481178284,0.2577973008155823,0.0311324056237936,2704.686931,walking,2,2020-03-15 14:36:16.618 +0100,605972174.4366144,0,-6.31,101.293
2020-03-15 14:36:17.051 +0100,2705.116798,1.147552490234375,0.03399658203125,0.287872314453125,2705.111774,-0.663655127749088,1.618326848493497,-0.3123322897148266,5.995919227600098,2.000956058502197,-1.014886021614075,0.1978423595428467,-0.2030017971992493,0.1957324743270874,XArbitraryZVertical,0.1314168578431475,0.7108702964075992,-0.3285002624568165,0.6078490917444149,0.9505446553230286,0.3072789311408997,0.04521393775939941,2704.686931,walking,2,2020-03-15 14:36:16.618 +0100,605972174.4366144,0,-6.31,101.293
2020-03-15 14:36:17.091 +0100,2705.156988,1.09088134765625,0.012786865234375,0.2746734619140625,2705.151965,-0.8783884905206588,1.627855556094052,-0.3567878457537558,4.100317001342773,2.084684371948242,-0.6767504215240479,0.161542534828186,-0.3993167579174042,0.281747579574585,XArbitraryZVertical,0.1939363447417443,0.6993619299644914,-0.4040969702064784,0.5567648965477776,0.9354985356330872,0.3492661714553833,0.05343683063983917,2704.686931,walking,2,2020-03-15 14:36:16.618 +0100,605972174.4366144,0,-6.31,101.293
2020-03-15 14:36:17.132 +0100,2705.197179,1.112945556640625,0.182220458984375,0.1302490234375,2705.192155,-1.05944573850951,1.645688180106283,-0.3877752317253821,4.850179195404053,2.038294076919556,-0.2801312506198883,0.2081851959228516,-0.2210729718208313,0.06569206714630127,XArbitraryZVertical,0.2503962522182895,0.6869752454246504,-0.4591194106838759,0.5045554193212489,0.9231577515602112,0.378129780292511,0.06926654279232025,2704.686931,walking,2,2020-03-15 14:36:16.618 +0100,605972174.4366144,0,-6.31,101.293
2020-03-15 14:36:17.172 +0100,2705.237369,0.9586639404296875,0.0145721435546875,0.209259033203125,2705.232345,-1.264561861372576,1.644346310124583,-0.4049647032874786,4.073894023895264,1.882490038871765,0.1155035793781281,0.06456518173217773,-0.3817353844642639,0.1498924493789673,XArbitraryZVertical,0.3137115325670427,0.65981444959799,-0.5128760690930315,0.4507640527823229,0.9166315197944641,0.393986314535141,0.06754006445407867,2704.686931,walking,2,2020-03-15 14:36:16.618 +0100,605972174.4366144,0,-6.31,101.293
2020-03-15 14:36:17.212 +0100,2705.277559,0.982208251953125,0.1305389404296875,0.11712646484375,2705.272535,-1.411919587292433,1.658568635127585,-0.4007583031674817,2.965001821517944,1.717991828918457,0.6539766788482666,0.06106162071228027,-0.298138439655304,0.0477752685546875,XArbitraryZVertical,0.3665553624084846,0.6371767053755338,-0.5411103308697864,0.4084637038460789,0.9172208905220032,0.3901166617870331,0.08071397244930267,2704.686931,walking,2,2020-03-15 14:36:16.618 +0100,605972174.4366144,0,-6.31,101.293
2020-03-15 14:36:17.254 +0100,2705.317749,0.846435546875,0.2452545166015625,0.079345703125,2705.312726,-1.558259209115738,1.669300026290375,-0.379630677213037,3.810751676559448,1.541208744049072,0.9765689969062805,-0.02667433023452759,-0.148823082447052,-0.005012989044189453,XArbitraryZVertical,0.421222430775746,0.6068302193510682,-0.5628050900045874,0.3709166256299836,0.9242990612983704,0.3705774545669556,0.0913425013422966,2704.686931,walking,2,2020-03-15 14:36:16.618 +0100,605972174.4366144,0,-6.31,101.293
2020-03-15 14:36:17.292 +0100,2705.35794,0.844635009765625,0.3050079345703125,0.009002685546875,2705.352916,-1.733892465450883,1.665422354247182,-0.3561764257195758,4.105663299560547,1.475595474243164,1.024347424507141,-0.120380163192749,-0.05537500977516174,-0.06364190578460693,XArbitraryZVertical,0.4778998424999852,0.5620401195340159,-0.5896636379409068,0.328663057896149,0.9330439567565918,0.3486931920051575,0.08855471014976501,2704.686931,walking,2,2020-03-15 14:36:16.618 +0100,605972174.4366144,0,-6.31,101.293
2020-03-15 14:36:17.332 +0100,2705.39813,0.886016845703125,0.3577880859375,-0.07806396484375,2705.393106,-1.90878228634986,1.657137401513319,-0.3337125953633571,3.996296405792236,1.073122382164001,0.8839351534843445,-0.09532415866851807,-0.01935744285583496,-0.1018975973129272,XArbitraryZVertical,0.528085040778832,0.5117269414305384,-0.6146329080800664,0.2854610086271079,0.9413130879402161,0.3275530636310577,0.08147654682397842,2704.686931,walking,2,2020-03-15 14:36:16.618 +0100,605972174.4366144,0,-6.31,101.293
2020-03-15 14:36:17.373 +0100,2705.43832,0.96246337890625,0.41888427734375,-0.0813446044921875,2705.433296,-2.099724109360291,1.630855837368566,-0.3098289371441518,4.98234748840332,0.7019954323768616,0.9319782853126526,-0.006550312042236328,0.1561624705791473,-0.1598159074783325,XArbitraryZVertical,0.57124392302974,0.4497366994268948,-0.6434058316782484,0.2396793174875168,0.9506685137748718,0.3048957288265228,0.05716543644666672,2704.686931,walking,2,2020-03-15 14:36:16.618 +0100,605972174.4366144,0,-6.31,101.293
2020-03-15 14:36:17.413 +0100,2705.478510541667,1.192230224609375,0.2673492431640625,-0.0157470703125,2705.473487541667,-2.30080672627604,1.599301923951146,-0.278749706079416,4.304791927337646,0.6109359264373779,1.07029139995575,0.1644138693809509,-0.02475813031196594,-0.0568854808807373,XArbitraryZVertical,0.6088087434886211,0.3782230867317327,-0.6707607631087902,0.1907336121121859,0.9610097408294678,0.2751538455486298,0.02740157954394817,2704.686931,walking,2,2020-03-15 14:36:16.618 +0100,605972174.4366144,0,-6.31,101.293
2020-03-15 14:36:17.454 +0100,2705.518701541667,1.3250732421875,0.3921966552734375,0.0612335205078125,2705.513677541667,-2.487472006661174,1.576146185145968,-0.2354848907881257,4.65332555770874,0.5282273292541504,1.360770225524902,0.3627373576164246,0.15361687541008,0.07055354118347168,XArbitraryZVertical,0.6401500335109122,0.3046457398898494,-0.6899627869219526,0.1461172508608138,0.9723873734474182,0.2333145141601562,0.005202184431254864,2704.686931,walking,2,2020-03-15 14:36:16.618 +0100,605972174.4366144,0,-6.31,101.293
2020-03-15 14:36:17.493 +0100,2705.558891541667,0.9666595458984375,0.35906982421875,0.002410888671875,2705.553867541667,-2.669109365366023,1.560714339471166,-0.1870454553946333,4.031758785247803,0.5311571955680847,1.000504374504089,0.07931643724441528,0.2142347544431686,0.04061794281005859,XArbitraryZVertical,0.6654701523802742,0.228465513647648,-0.7032812495836205,0.1017283222911548,0.9825081825256348,0.1859567016363144,-0.00990597065538168,2704.686931,walking,2,2020-03-15 14:36:16.618 +0100,605972174.4366144,0,-6.31,101.293
2020-03-15 14:36:17.534 +0100,2705.599081541667,0.8570404052734375,0.3571929931640625,-0.087554931640625,2705.594057541667,-2.815259436944081,1.554878262064313,-0.1525980142384513,3.280824184417725,0.4124266803264618,0.6975419521331787,-0.1595843434333801,0.2024087160825729,-0.0543401837348938,XArbitraryZVertical,0.6813010224337904,0.1672205230593798,-0.7098855862210799,0.06268037818424192,0.9882544279098511,0.1520064622163773,-0.01573242619633675,2704.686931,walking,2,2020-03-15 14:36:16.618 +0100,605972174.4366144,0,-6.31,101.293
2020-03-15 14:36:17.574 +0100,2705.639271541667,1.035980224609375,0.39215087890625,-0.1551055908203125,2705.634248541667,-2.933783277932626,1.550593769908188,-0.1220302557711029,2.521300315856934,0.1012146472930908,0.7563468217849731,0.07977837324142456,0.2687747478485107,-0.137088418006897,XArbitraryZVertical,0.6903408441958658,0.1157758257963559,-0.7134659990922106,0.03148923909612623,0.9923608303070068,0.1217276155948639,-0.02005095407366753,2704.686931,walking,2,2020-03-15 14:36:16.618 +0100,605972174.4366144,0,-6.31,101.293
2020-03-15 14:36:17.614 +0100,2705.679462541667,0.899658203125,0.373626708984375,-0.115478515625,2705.674438541667,-3.014906290771762,1.540390768026981,-0.08844364915675987,1.421199202537537,-0.1808188557624817,0.8005251884460449,-0.08138978481292725,0.3060498535633087,-0.0967974066734314,XArbitraryZVertical,0.6921911787781422,0.07569905343630426,-0.7175832943649728,0.01467250942965162,0.9956310391426086,0.08832839131355286,-0.03028205037117004,2704.686931,walking,2,2020-03-15 14:36:16.618 +0100,605972177.0105281,0,-6.36,101.2971
2020-03-15 14:36:17.654 +0100,2705.719652541667,0.8926544189453125,0.373748779296875,-0.0717926025390625,2705.714628541667,-3.048928391788782,1.522334173912255,-0.05867352707861325,0.3927708268165588,-0.5532358884811401,0.596809446811676,-0.09623235464096069,0.3417504727840424,-0.04560762643814087,XArbitraryZVertical,0.6877465864511582,0.05314809545378783,-0.7238803865297418,0.01330857905679484,0.997107207775116,0.05863986909389496,-0.04835982620716095,2704.686931,walking,2,2020-03-15 14:36:16.618 +0100,605972177.0105281,0,-6.36,101.2971
2020-03-15 14:36:17.694 +0100,2705.759842541667,0.9215850830078125,0.2918243408203125,0.0191192626953125,2705.754818541667,-3.041991215590738,1.493825676922225,-0.03915776558958582,-0.630368173122406,-0.8375800848007202,0.4157283306121826,-0.09741413593292236,0.2804321050643921,0.06111538410186768,XArbitraryZVertical,0.6776892026799706,0.04816103267291041,-0.7334015316415907,0.02323704637829549,0.9962748289108276,0.0391477607190609,-0.07683572173118591,2704.686931,walking,2,2020-03-15 14:36:16.618 +0100,605972177.0105281,0,-6.36,101.2971
2020-03-15 14:36:17.734 +0100,2705.800032541667,1.030685424804688,0.2386932373046875,0.1447296142578125,2705.795009541667,-3.011751072133781,1.458661096709712,-0.02954630017199546,-0.7301651835441589,-0.971074640750885,0.1652896404266357,0.0320855975151062,0.2242572903633118,0.2371529936790466,XArbitraryZVertical,0.6641796954278075,0.05421776868271309,-0.7446073623666655,0.03854370915316316,0.9932857155799866,0.02954200096428394,-0.1118515282869339,2704.686931,walking,2,2020-03-15 14:36:16.618 +0100,605972177.0105281,0,-6.36,101.2971
2020-03-15 14:36:17.775 +0100,2705.840223541667,0.98895263671875,0.307403564453125,0.134307861328125,2705.835199541667,-2.979314175602706,1.418024354859112,-0.03530333427722896,-1.030574798583984,-1.049819469451904,-0.2699683606624603,-0.01235383749008179,0.2519047558307648,0.2936511635780334,XArbitraryZVertical,0.6477553340225481,0.06611526438946808,-0.7573219789796591,0.05005368604218409,0.9877373576164246,0.0352960005402565,-0.1520836055278778,2704.686931,walking,2,2020-03-15 14:36:16.618 +0100,605972177.0105281,0,-6.36,101.2971
2020-03-15 14:36:17.815 +0100,2705.880413541667,0.982574462890625,0.2931976318359375,0.07012939453125,2705.875389541667,-2.924676359610097,1.379129431041228,-0.06552277056632864,-1.875344514846802,-0.9977325201034546,-0.7207040190696716,0.01173168420791626,0.2191306948661804,0.2803387641906738,XArbitraryZVertical,0.6293882734494777,0.09395222480679659,-0.7688338808512976,0.06275252814535459,0.9795815348625183,0.06547589600086212,-0.190086767077446,2704.686931,walking,2,2020-03-15 14:36:16.618 +0100,605972177.0105281,0,-6.36,101.2971
2020-03-15 14:36:17.855 +0100,2705.920603541667,1.0015869140625,0.323577880859375,0.0808258056640625,2705.915580541667,-2.858235457011711,1.34993138889125,-0.1165344879731081,-1.699844717979431,-0.7315042018890381,-1.081544518470764,0.02304673194885254,0.2048955261707306,0.2870574593544006,XArbitraryZVertical,0.6111398337845571,0.1330947714531294,-0.7767323958744891,0.07403145022289653,0.9690906405448914,0.1162709072232246,-0.2175877690315247,2704.686931,walking,2,2020-03-15 14:36:16.618 +0100,605972177.0105281,0,-6.36,101.2971
2020-03-15 14:36:17.895 +0100,2705.960794541667,0.9715728759765625,0.2709808349609375,0.0638275146484375,2705.955770541667,-2.81818993964316,1.331876957289134,-0.1768366935892854,-0.8457522988319397,-0.4521917998790741,-1.375822186470032,0.01721674203872681,0.1035626381635666,0.2998991012573242,XArbitraryZVertical,0.5961771851683405,0.1676056293697869,-0.7818306820454588,0.07226204337165636,0.9564422965049744,0.1759164780378342,-0.2329622358083725,2704.686931,walking,2,2020-03-15 14:36:16.618 +0100,605972177.0105281,0,-6.36,101.2971
2020-03-15 14:36:17.935 +0100,2706.000984541667,1.03515625,0.201202392578125,0.096649169921875,2705.995960541667,-2.810978024249866,1.319733704608814,-0.2375794511675853,-0.2828826308250427,-0.2514534890651703,-1.419805645942688,0.1064074039459229,-0.02841213345527649,0.3236507773399353,XArbitraryZVertical,0.5849861817098487,0.1925192145397048,-0.7857662154602945,0.05743676514046779,0.9414401054382324,0.2353507578372955,-0.2414550334215164,2704.686931,walking,2,2020-03-15 14:36:16.618 +0100,605972177.0105281,0,-6.36,101.2971
2020-03-15 14:36:17.976 +0100,2706.041174541667,1.034988403320312,0.2003936767578125,0.0636138916015625,2706.036150541667,-2.819244528509726,1.311561632538533,-0.2922803718082815,-0.06951728463172913,-0.03260304033756256,-1.30164909362793,0.07737892866134644,-0.08948367834091187,0.3240032196044922,XArbitraryZVertical,0.5769381725617239,0.2107313505819413,-0.788210771922547,0.03818850188421233,0.9255927801132202,0.2881366312503815,-0.2454692870378494,2704.686931,walking,2,2020-03-15 14:36:16.618 +0100,605972177.0105281,0,-6.36,101.2971
2020-03-15 14:36:18.016 +0100,2706.081364541667,1.036148071289062,0.122650146484375,0.023101806640625,2706.076341541667,-2.827581757396794,1.310896673248927,-0.3394044662956073,-0.2154558151960373,0.136043056845665,-1.049359083175659,0.1302919983863831,-0.2029525637626648,0.2801622748374939,XArbitraryZVertical,0.5724344186966677,0.2261793734086831,-0.787871351029238,0.02050445027394032,0.9112847447395325,0.3329255878925323,-0.2423234581947327,2704.686931,walking,2,2020-03-15 14:36:16.618 +0100,605972177.0105281,0,-6.36,101.2971
2020-03-15 14:36:18.056 +0100,2706.121555541667,1.029098510742188,0.167083740234375,-0.043914794921875,2706.116531541667,-2.827387863207092,1.321235936687425,-0.373286959769741,-0.1334908604621887,0.3664502501487732,-0.5479896068572998,0.1431947946548462,-0.2191716134548187,0.2099622488021851,XArbitraryZVertical,0.5725983839329912,0.2390529701969119,-0.7841587550687537,0.008935550498456922,0.9022881984710693,0.3646779954433441,-0.2299695312976837,2704.686931,walking,2,2020-03-15 14:36:16.618 +0100,605972177.0105281,0,-6.36,101.2971
2020-03-15 14:36:18.096 +0100,2706.161745541667,1.033370971679688,0.2582550048828125,-0.1705322265625,2706.156721541667,-2.832113715118783,1.338829138651863,-0.3829839729147811,0.2310540229082108,0.5862120389938354,0.008634554222226143,0.1112024188041687,-0.1360662579536438,0.06589573621749878,XArbitraryZVertical,0.5789032409245404,0.2413550000783239,-0.7788548949893186,0.001961573416645317,0.9027101397514343,0.3736899197101593,-0.2132375985383987,2704.686931,walking,2,2020-03-15 14:36:16.618 +0100,605972177.0105281,0,-6.36,101.2971
2020-03-15 14:36:18.136 +0100,2706.201935541667,1.08685302734375,0.2915191650390625,-0.25927734375,2706.196911541667,-2.849819588819542,1.361209071611427,-0.3652410903605423,0.8401661515235901,0.6413233876228333,0.3919269740581512,0.1776764988899231,-0.08244138956069946,-0.04308235645294189,XArbitraryZVertical,0.591707821399987,0.2295989765972294,-0.7727627544583818,-0.001963314577827543,0.9135980010032654,0.3571744859218597,-0.1943323314189911,2704.686931,walking,2,2020-03-15 14:36:16.618 +0100,605972177.0105281,0,-6.36,101.2971
2020-03-15 14:36:18.177 +0100,2706.242126541667,0.9371490478515625,0.23638916015625,-0.4010009765625,2706.237102541667,-2.900562018561606,1.366973884243006,-0.338575846063967,1.705854296684265,0.4984038472175598,0.3617302179336548,0.05876046419143677,-0.0687328577041626,-0.1958751678466797,XArbitraryZVertical,0.6022528126431195,0.2045242108448461,-0.7715391515758265,-0.01373779753631855,0.9237038493156433,0.3321441411972046,-0.1909227967262268,2704.686931,walking,2,2020-03-15 14:36:16.618 +0100,605972177.0105281,0,-6.36,101.2971
2020-03-15 14:36:18.217 +0100,2706.282316541667,0.9691925048828125,0.15576171875,-0.3525390625,2706.277292541667,-2.966234733641049,1.361887130676358,-0.3151023530283297,1.384637594223022,0.2915675342082977,0.1860337406396866,-0.01949763298034668,-0.1706938147544861,-0.1735334992408752,XArbitraryZVertical,0.6086660527385183,0.1758826378835672,-0.7730572674699384,-0.0311986215159139,0.9300928115844727,0.3099137842655182,-0.1971818655729294,2704.686931,walking,2,2020-03-15 14:36:16.618 +0100,605972177.0105281,0,-6.36,101.2971
2020-03-15 14:36:18.257 +0100,2706.322506541667,1.170425415039062,0.1859283447265625,-0.2371063232421875,2706.317482541667,-3.01168860302487,1.353602768220036,-0.2999460976002839,0.9035068154335022,-0.05776011571288109,0.07500362396240234,0.2454796433448792,-0.08831650018692017,-0.07179820537567139,XArbitraryZVertical,0.6104064604708062,0.1564273238091248,-0.775277744079292,-0.04334772753857875,0.9329075217247009,0.2954687178134918,-0.2058688849210739,2704.686931,walking,2,2020-03-15 14:36:16.618 +0100,605972177.0105281,0,-6.36,101.2971
2020-03-15 14:36:18.297 +0100,2706.362696541667,1.022171020507812,0.06915283203125,-0.1280059814453125,2706.357673541667,-3.030300127181771,1.339811881271753,-0.2958631974041328,-0.2067336142063141,-0.2910894751548767,-0.08073929697275162,0.1349056363105774,-0.2040728330612183,0.07414960861206055,XArbitraryZVertical,0.6067541516430053,0.14951576195081,-0.7792085674123626,-0.04825490301217658,0.9311463236808777,0.2915656566619873,-0.2189888656139374,2704.686931,walking,2,2020-03-15 14:36:16.618 +0100,605972177.0105281,0,-6.36,101.2971
2020-03-15 14:36:18.337 +0100,2706.402887541667,0.8797607421875,0.1235198974609375,-0.126922607421875,2706.397863541667,-2.995963890801785,1.339943472640772,-0.3082763306938637,-1.265533447265625,-0.1628412157297134,-0.08708231896162033,-0.02086067199707031,-0.2033964991569519,0.1040809154510498,XArbitraryZVertical,0.6032210443548988,0.164662372622875,-0.7794293897347053,-0.03873479810476196,0.9275801181793213,0.3034166693687439,-0.218021348118782,2704.686931,walking,2,2020-03-15 14:36:16.618 +0100,605972177.0105281,0,-6.36,101.2971
2020-03-15 14:36:18.378 +0100,2706.44307775,0.792938232421875,0.193023681640625,-0.133392333984375,2706.438053541667,-2.945903338803695,1.352905663934413,-0.3167607508048624,-1.015962243080139,0.03584937378764153,0.2458282262086868,-0.1171616911888123,-0.135603278875351,0.05993562936782837,XArbitraryZVertical,0.6032240674205644,0.1827914549678304,-0.7760007095484748,-0.02304078168572882,0.9277812838554382,0.3114901185035706,-0.2054160237312317,2704.686931,walking,2,2020-03-15 14:36:16.618 +0100,605972177.0105281,0,-6.36,101.2971
2020-03-15 14:36:18.418 +0100,2706.48326775,0.743316650390625,0.1975860595703125,-0.0691680908203125,2706.47824375,-2.907695600949359,1.36961223802005,-0.3062461051456616,-0.7381019592285156,0.2161077708005905,0.6470454931259155,-0.1922098398208618,-0.09394794702529907,0.1029739379882812,XArbitraryZVertical,0.6070675242494559,0.1902708851922341,-0.7715075356799823,-0.006499023210202307,0.9342411756515503,0.3014815449714661,-0.1905320286750793,2704.686931,walking,2,2020-03-15 14:36:16.618 +0100,605972177.0105281,0,-6.36,101.2971
2020-03-15 14:36:18.458 +0100,2706.52345775,0.7913970947265625,0.2536163330078125,-0.0501556396484375,2706.51843475,-2.866735253283545,1.391882697307266,-0.2805571285305918,-0.9030184745788574,0.2918047308921814,0.9482939839363098,-0.1660257577896118,-0.04888004064559937,0.1200199127197266,XArbitraryZVertical,0.6141250117610089,0.1932592663153719,-0.7650274970613395,0.01531143348251852,0.9455631971359253,0.2768910229206085,-0.1710026562213898,2704.686931,walking,2,2020-03-15 14:36:16.618 +0100,605972177.0105281,0,-6.36,101.2971
2020-03-15 14:36:18.498 +0100,2706.56364875,0.855194091796875,0.2611236572265625,-0.0570831298828125,2706.55862475,-2.817923002151117,1.416353827357051,-0.2464757506585161,-1.256103157997131,0.2780657410621643,1.074227929115295,-0.1200738549232483,0.03022697567939758,0.0981820821762085,XArbitraryZVertical,0.6220378283510367,0.1961601423342069,-0.756822344270037,0.04254485353973031,0.9582354426383972,0.2439877390861511,-0.1491802781820297,2704.686931,walking,2,2020-03-15 14:36:16.618 +0100,605972177.0105281,0,-6.36,101.2971
2020-03-15 14:36:18.538 +0100,2706.60383875,0.8960418701171875,0.3285675048828125,-0.08062744140625,2706.59881475,-2.753080045578014,1.441322543532971,-0.21208917186392,-1.474378228187561,0.2434726059436798,1.037727117538452,-0.07923197746276855,0.1207494735717773,0.05541515350341797,XArbitraryZVertical,0.6284810481688856,0.2046995216562909,-0.7465787718522477,0.07569513601732804,0.9694107174873352,0.2105027139186859,-0.1262193620204926,2704.686931,walking,2,2020-03-15 14:36:16.618 +0100,605972177.0105281,0,-6.36,101.2971
2020-03-15 14:36:18.578 +0100,2706.64402875,0.966522216796875,0.396942138671875,-0.1465606689453125,2706.63900475,-2.696120048674267,1.46325608727832,-0.1794826107585109,-1.04992687702179,0.3008592128753662,0.8810611367225647,-0.03132617473602295,0.1938847154378891,-0.02050864696502686,XArbitraryZVertical,0.6342252441223464,0.2120233204139791,-0.736012151541078,0.1053119237710147,0.978252112865448,0.1785205155611038,-0.1056089028716087,2704.686931,walking,2,2020-03-15 14:36:16.618 +0100,605972177.0105281,0,-6.36,101.2971
2020-03-15 14:36:18.619 +0100,2706.68421875,0.9388580322265625,0.4421844482421875,-0.213623046875,2706.67919575,-2.66208811842284,1.481754211806486,-0.1525579309232551,-0.5142064094543457,0.3516627252101898,0.5956565737724304,-0.04070258140563965,0.2890420258045197,-0.1227291822433472,XArbitraryZVertical,0.6403711598049298,0.2144269951066366,-0.7269003889199426,0.1247458453470759,0.9844698309898376,0.151966854929924,-0.08789168298244476,2704.686931,walking,2,2020-03-15 14:36:16.618 +0100,605972177.0105281,0,-6.36,101.2971
2020-03-15 14:36:18.659 +0100,2706.72440975,0.8860626220703125,0.4326324462890625,-0.2423858642578125,2706.71938575,-2.642941004099287,1.499421949207385,-0.1378576485966023,-0.4085496366024017,0.3906374871730804,0.1892920434474945,-0.0883823037147522,0.3061968088150024,-0.1641536951065063,XArbitraryZVertical,0.6463504982972353,0.2165927720606691,-0.7191516064076295,0.1346828655478169,0.98799067735672,0.1374213993549347,-0.07063721120357513,2704.686931,walking,2,2020-03-15 14:36:16.618 +0100,605972177.0105281,0,-6.36,101.2971
2020-03-15 14:36:18.699 +0100,2706.76459975,0.890228271484375,0.43206787109375,-0.243133544921875,2706.75957575,-2.629065540251784,1.517850752161197,-0.1381719875963173,-0.2683078944683075,0.4012919366359711,-0.1256819814443588,-0.07935619354248047,0.3016282916069031,-0.1903390288352966,XArbitraryZVertical,0.6513865381411715,0.2224574926767509,-0.7122476705117283,0.1375196569357246,0.9890816211700439,0.1377327591180801,-0.05241648480296135,2704.686931,walking,2,2020-03-15 14:36:16.618 +0100,605972177.0105281,0,-6.36,101.2971
2020-03-15 14:36:18.740 +0100,2706.80478975,0.913330078125,0.4290771484375,-0.251739501953125,2706.79976575,-2.623501139288774,1.532365221678812,-0.1504416102830999,-0.005441418848931789,0.3847266733646393,-0.2278787791728973,-0.09680485725402832,0.2777063548564911,-0.2078965902328491,XArbitraryZVertical,0.6544882445188068,0.2294587141333014,-0.7078995110723373,0.1336866285946748,0.9879749417304993,0.1498747766017914,-0.03798767179250717,2704.686931,walking,2,2020-03-15 14:36:16.618 +0100,605972177.0105281,0,-6.36,101.2971
2020-03-15 14:36:18.779 +0100,2706.84498075,0.8962860107421875,0.413665771484375,-0.2545013427734375,2706.83995675,-2.632961585301095,1.533508945034821,-0.1727560918982169,0.3513141870498657,0.2763325870037079,-0.1489731669425964,-0.07752847671508789,0.2631596922874451,-0.2354976534843445,XArbitraryZVertical,0.6533518249062709,0.2340287930599868,-0.7094623293031244,0.1225765000796147,0.9844298958778381,0.1718980669975281,-0.03672383353114128,2704.686931,walking,2,2020-03-15 14:36:16.618 +0100,605972177.0105281,0,-6.36,101.2971
2020-03-15 14:36:18.820 +0100,2706.88517075,0.9951934814453125,0.3852691650390625,-0.1866302490234375,2706.88014675,-2.6498480455552,1.528197041891443,-0.1906060820449701,0.3368693888187408,0.1884872615337372,-0.03772778436541557,-0.01031535863876343,0.2010174989700317,-0.1592544317245483,XArbitraryZVertical,0.6513098627519708,0.2342816504283816,-0.7131398018380843,0.1110816159933726,0.9809987545013428,0.1894540339708328,-0.0418151430785656,2704.686931,walking,2,2020-03-15 14:36:16.618 +0100,605972177.0105281,0,-6.36,101.2971
2020-03-15 14:36:18.860 +0100,2706.92536075,1.068084716796875,0.3474273681640625,-0.149658203125,2706.92033675,-2.660287641988036,1.522894100014931,-0.199512539844223,0.06005381792783737,0.1215008795261383,0.07637231796979904,0.07782548666000366,0.1537513732910156,-0.1169654726982117,XArbitraryZVertical,0.6495740259234591,0.2336376629095488,-0.7158616386536111,0.1049248516717101,0.9790390729904175,0.1981915682554245,-0.04693405330181122,2704.686931,walking,2,2020-03-15 14:36:16.618 +0100,605972177.0105281,0,-6.36,101.2971
2020-03-15 14:36:18.900 +0100,2706.96555075,1.225509643554688,0.39044189453125,-0.1493988037109375,2706.96052775,-2.657825170276745,1.527080659881677,-0.1934301832768037,-0.1414075791835785,0.1417887657880783,0.3362957537174225,0.2000476121902466,0.1841002702713013,-0.1007643938064575,XArbitraryZVertical,0.6515066192197781,0.2325849455525872,-0.7140790842305393,0.1073986463977222,0.9804131388664246,0.192226231098175,-0.04288673773407936,2704.686931,walking,2,2020-03-15 14:36:16.618 +0100,605972177.0105281,0,-6.36,101.2971
2020-03-15 14:36:18.940 +0100,2707.00574175,1.337921142578125,0.4606475830078125,-0.2409515380859375,2707.00071775,-2.652512515377626,1.533853086296332,-0.1729415453183386,0.02920950204133987,0.1317827850580215,0.6771116852760315,0.3293049335479736,0.2602455615997314,-0.1728193163871765,XArbitraryZVertical,0.6557090873916016,0.2277139821693691,-0.710523751851649,0.1155326604671477,0.9844105839729309,0.1720807552337646,-0.03638387098908424,2704.686931,walking,2,2020-03-15 14:36:16.618 +0100,605972177.0105281,0,-6.36,101.2971
2020-03-15 14:36:18.980 +0100,2707.04593175,1.140151977539062,0.5453338623046875,-0.386810302734375,2707.04090775,-2.671486834388979,1.531617300672826,-0.1443621292366222,1.040175318717957,-0.1300123333930969,0.5811739563941956,0.2335072755813599,0.4010751247406006,-0.3186349272727966,XArbitraryZVertical,0.6601985963235758,0.211558573082846,-0.7108173035154874,0.1188261882955131,0.9888385534286499,0.1438612192869186,-0.03876156732439995,2704.686931,walking,2,2020-03-15 14:36:16.618 +0100,605972177.0105281,0,-6.36,101.2971
2020-03-15 14:36:19.021 +0100,2707.08612175,0.8512115478515625,0.385711669921875,-0.238433837890625,2707.08109775,-2.726210209181934,1.513756843641305,-0.1334875720565629,1.336048722267151,-0.3321239948272705,-0.2313806414604187,-0.1096755266189575,0.2995249032974243,-0.2490457892417908,XArbitraryZVertical,0.6604051588844575,0.1887175897523925,-0.7192191359991948,0.1047592610800832,0.989491879940033,0.1330914944410324,-0.05650139600038528,2704.686931,walking,2,2020-03-15 14:36:16.618 +0100,605972177.0105281,0,-6.36,101.2971
2020-03-15 14:36:19.061 +0100,2707.12631175,1.107864379882812,0.324981689453125,-0.104827880859375,2707.12128875,-2.758914742438127,1.493596906699133,-0.1569316337854599,0.2545233964920044,-0.4797168374061584,-0.9805566668510437,0.06666219234466553,0.1663884371519089,-0.03837782144546509,XArbitraryZVertical,0.6539043904881525,0.1852607023864271,-0.7283840108828158,0.08685794286846835,0.9847697615623474,0.156288281083107,-0.07617504149675369,2704.686931,walking,2,2020-03-15 14:36:16.618 +0100,605972177.0105281,0,-6.36,101.2971
2020-03-15 14:36:19.101 +0100,2707.16650275,1.031997680664062,0.298492431640625,-0.0893707275390625,2707.16147875,-2.7635703003612,1.470840985029051,-0.2050083347061076,-0.152310773730278,-0.602024257183075,-1.380081176757812,0.1509440541267395,0.1085267663002014,0.004951119422912598,XArbitraryZVertical,0.6412351612455658,0.1999194985918154,-0.7374174480114647,0.07116962570958262,0.9741724133491516,0.2035753130912781,-0.09769932180643082,2704.686931,walking,2,2020-03-15 14:36:16.618 +0100,605972177.0105281,0,-6.36,101.2971
2020-03-15 14:36:19.141 +0100,2707.20669275,0.746307373046875,0.2888641357421875,-0.1039581298828125,2707.20166875,-2.763414065834361,1.448407395682131,-0.2668134307501683,-0.1706252545118332,-0.4794969260692596,-1.674137234687805,-0.1874632239341736,0.02375388145446777,0.01305246353149414,XArbitraryZVertical,0.6262211915368335,0.2212806276867174,-0.7457040367093235,0.0529850718564556,0.9574005007743835,0.2636589705944061,-0.1177638098597527,2704.686931,walking,2,2020-03-15 14:36:16.618 +0100,605972177.0105281,0,-6.36,101.2971
2020-03-15 14:36:19.181 +0100,2707.24688275,0.809600830078125,0.293121337890625,-0.0402984619140625,2707.24185875,-2.769995106241483,1.430108571612806,-0.3390425378513806,0.08134143799543381,-0.3593842089176178,-1.894861936569214,-0.1228329539299011,-0.03638273477554321,0.07493972778320312,XArbitraryZVertical,0.6116049465029576,0.2445783539456211,-0.7518596835841199,0.02877095771360341,0.9337556958198547,0.3325842916965485,-0.1322416365146637,2704.686931,walking,2,2020-03-15 14:36:16.618 +0100,605972177.0105281,0,-6.36,101.2971
2020-03-15 14:36:19.221 +0100,2707.28707375,0.897216796875,0.2801971435546875,0.0113525390625,2707.28204975,-2.794416275466991,1.408348563390367,-0.4130432789203533,0.4580698609352112,-0.2752489149570465,-1.869236946105957,-0.04436886310577393,-0.1093631088733673,0.1384687423706055,XArbitraryZVertical,0.5971317050758956,0.2633766405450074,-0.7576693137040715,-0.001920627628151098,0.9038450121879578,0.4013985395431519,-0.1481329500675201,2704.686931,walking,2,2020-03-15 14:36:16.618 +0100,605972177.0105281,0,-6.36,101.2971
2020-03-15 14:36:19.262 +0100,2707.32726375,1.037857055664062,0.2724151611328125,0.0028839111328125,2707.32223975,-2.833164707420897,1.380841079864599,-0.4783488019574664,0.7003541588783264,-0.2803675830364227,-1.626745462417603,0.118730902671814,-0.1950123906135559,0.1698135137557983,XArbitraryZVertical,0.5833348058435307,0.2755171311749061,-0.7633169770973827,-0.03402860124684882,0.8717877864837646,0.4603139460086823,-0.1676216274499893,2704.686931,walking,2,2020-03-15 14:36:16.618 +0100,605972177.0105281,0,-6.36,101.2971
2020-03-15 14:36:19.302 +0100,2707.36745375,0.845977783203125,0.2163543701171875,0.0272674560546875,2707.36242975,-2.887101192454665,1.339756027714556,-0.5309388447855189,0.9907903075218201,-0.4323239624500275,-1.421402215957642,0.0526198148727417,-0.2896411418914795,0.2202723622322083,XArbitraryZVertical,0.5681968492416953,0.2800348130269945,-0.7709936209089366,-0.06558735001426796,0.8394188284873962,0.5063431859016418,-0.1974656879901886,2704.686931,walking,2,2020-03-15 14:36:16.618 +0100,605972177.0105281,0,-6.36,101.2971
2020-03-15 14:36:19.342 +0100,2707.40764375,0.6591033935546875,0.1910400390625,0.044921875,2707.40262075,-2.947435813897756,1.292498637582225,-0.5717791632489345,0.8777859807014465,-0.3034412562847137,-1.187027335166931,-0.1114456653594971,-0.3282114863395691,0.2670891284942627,XArbitraryZVertical,0.5532113249023819,0.2800822753939581,-0.7787983015846308,-0.09478644746980226,0.8085840940475464,0.5411290526390076,-0.2310222983360291,2704.686931,walking,2,2020-03-15 14:36:16.618 +0100,605972177.0105281,0,-6.36,101.2971
2020-03-15 14:36:19.382 +0100,2707.447833041667,0.4919586181640625,0.170196533203125,-0.031097412109375,2707.442809041667,-2.985526022988735,1.262176571399267,-0.6058657582992987,0.07412168383598328,-0.1857024878263474,-0.8847284913063049,-0.2336018681526184,-0.4074294567108154,0.2405351996421814,XArbitraryZVertical,0.542667681623241,0.2840275202422501,-0.7819981946934897,-0.1154075865664737,0.7831724286079407,0.569473922252655,-0.2496803104877472,2704.686931,walking,2,2020-03-15 14:36:16.618 +0100,605972177.0105281,0,-6.36,101.2971
2020-03-15 14:36:19.422 +0100,2707.488023041667,0.2435302734375,0.2834625244140625,-0.2412872314453125,2707.482999041667,-2.987664624816708,1.252763693225768,-0.6368103829898857,-0.2508593797683716,-0.199621319770813,-0.5821918845176697,-0.4801903963088989,-0.3475068807601929,0.07206666469573975,XArbitraryZVertical,0.5356031115156413,0.2956772958724865,-0.781264737823932,-0.123813264586222,0.7636781334877014,0.5946340560913086,-0.2514084875583649,2704.686931,walking,2,2020-03-15 14:36:16.618 +0100,605972177.0105281,0,-6.36,101.2971
2020-03-15 14:36:19.463 +0100,2707.528213041667,0.4611968994140625,0.4502105712890625,-0.1684722900390625,2707.523189041667,-2.992857678656993,1.244154675803469,-0.6527713208880479,0.2190569192171097,-0.03818496316671371,-0.2021371573209763,-0.4041991829872131,-0.2018157839775085,0.0853043794631958,XArbitraryZVertical,0.5310761232812085,0.3008494051847382,-0.7815207010170913,-0.1291248095116589,0.752399742603302,0.607390284538269,-0.2548955678939819,2704.686931,walking,2,2020-03-15 14:36:16.618 +0100,605972177.0105281,0,-6.36,101.2971
2020-03-15 14:36:19.503 +0100,2707.568403041667,0.8063812255859375,0.618621826171875,-0.413604736328125,2707.563380041667,-3.017406612414967,1.228168048564908,-0.6440475755930526,0.8142917156219482,-0.03153298050165176,0.2971879541873932,-0.03647530078887939,-0.00388336181640625,-0.1182000041007996,XArbitraryZVertical,0.5294867635755632,0.2920844994707542,-0.7851118434232418,-0.1339023880814687,0.7531910538673401,0.6004371047019958,-0.2686608135700226,2704.686931,walking,2,2020-03-15 14:36:16.618 +0100,605972177.0105281,0,-6.36,101.2971
2020-03-15 14:36:19.543 +0100,2707.608594041667,1.285919189453125,0.67816162109375,-0.4347381591796875,2707.603570041667,-3.050384709666595,1.206481964690578,-0.6088313488137699,0.9695092439651489,-0.09439697116613388,0.869082510471344,0.4093743562698364,0.09668123722076416,-0.1529396772384644,XArbitraryZVertical,0.5294152236790466,0.2712498757089042,-0.7925736467454143,-0.1340518498585596,0.7664780020713806,0.5719091892242432,-0.2922860383987427,2704.686931,walking,2,2020-03-15 14:36:16.618 +0100,605972177.0105281,0,-6.36,101.2971
2020-03-15 14:36:19.583 +0100,2707.648784041667,1.536209106445312,0.590179443359375,-0.3149261474609375,2707.643760041667,-3.061118598559596,1.195859784848953,-0.5613070355910392,0.1838852614164352,-0.111117422580719,1.157559156417847,0.698603093624115,0.05994260311126709,-0.04832029342651367,XArbitraryZVertical,0.531261077702454,0.2505010979836407,-0.7997949142167954,-0.1238507145014307,0.7877503633499146,0.5322931408882141,-0.3100217282772064,2704.686931,walking,2,2020-03-15 14:36:16.618 +0100,605972177.0105281,0,-6.36,101.2971
2020-03-15 14:36:19.623 +0100,2707.688974041667,1.654434204101562,0.5051727294921875,-0.1563262939453125,2707.683951041667,-3.028699214263264,1.21208688931044,-0.5136127286059667,-0.6306316256523132,0.0949162095785141,1.585994124412537,0.8329091668128967,0.03615081310272217,0.1145116686820984,XArbitraryZVertical,0.5382849318334046,0.2395086304879021,-0.8018509017063959,-0.09960024356126117,0.8155382871627808,0.4913270473480225,-0.3057698905467987,2704.686931,walking,2,2020-03-15 14:36:16.618 +0100,605972177.0105281,0,-6.36,101.2971
2020-03-15 14:36:19.664 +0100,2707.729165041667,1.63092041015625,0.4583892822265625,-0.0774078369140625,2707.724141041667,-2.956629554938786,1.253119309286575,-0.4543533229226849,-1.377912640571594,0.2900011837482452,2.3218834400177,0.7625745534896851,0.02357915043830872,0.1767531633377075,XArbitraryZVertical,0.5520053414632314,0.2344249031920204,-0.7980598194981414,-0.05861460064336475,0.8535851240158081,0.4388813376426697,-0.2806701362133026,2704.686931,walking,2,2020-03-15 14:36:16.618 +0100,605972177.0105281,0,-6.36,101.2971
2020-03-15 14:36:19.704 +0100,2707.769355041667,1.600570678710938,0.528717041015625,-0.053466796875,2707.764331041667,-2.855989499273131,1.307721041515005,-0.3624082946412023,-1.560149550437927,0.3543049395084381,3.352329254150391,0.7912868857383728,0.143669992685318,0.2091582417488098,XArbitraryZVertical,0.571849033771176,0.2267350280262031,-0.7883990701869694,0.002612792490266483,0.9028753042221069,0.3545271158218384,-0.2431598156690598,2704.686931,walking,2,2020-03-15 14:36:16.618 +0100,605972177.0105281,0,-6.36,101.2971
2020-03-15 14:36:19.744 +0100,2707.809545041667,0.993927001953125,0.532501220703125,-0.124298095703125,2707.804521041667,-2.769861348208889,1.348554528012358,-0.234990617509,-0.8468241691589355,0.4530643820762634,3.622470140457153,0.1585425138473511,0.3089278638362885,0.1072217226028442,XArbitraryZVertical,0.5924272276733039,0.2045738514343591,-0.7759361122398049,0.0714337669228136,0.948598325252533,0.2328338623046875,-0.2143590450286865,2704.686931,walking,2,2020-03-15 14:36:16.618 +0100,605972177.0105281,0,-6.36,101.2971
2020-03-15 14:36:19.784 +0100,2707.849736041667,1.113739013671875,0.5630645751953125,-0.2837371826171875,2707.844712041667,-2.737702475060411,1.377007810512754,-0.1006469470548574,0.8462526202201843,0.5742229819297791,3.154486656188965,0.09238779544830322,0.4537671506404877,-0.05403828620910645,XArbitraryZVertical,0.6138915372991157,0.1653345993383876,-0.7619580042596227,0.1233759734140281,0.9763157963752747,0.1004771143198013,-0.1916033029556274,2704.686931,walking,2,2020-03-15 14:36:16.618 +0100,605972177.0105281,0,-6.36,101.2971
2020-03-15 14:36:19.824 +0100,2707.889926041667,0.939422607421875,0.4045562744140625,-0.08258056640625,2707.884902041667,-2.770207604163808,1.399533310677092,0.01634660194965547,1.252882480621338,0.6605865359306335,2.219061851501465,-0.0006721615791320801,0.4450874328613281,0.05249375104904175,XArbitraryZVertical,0.6341005087983997,0.1127582249339884,-0.7508442602370359,0.1464070784960509,0.9852386713027954,-0.01634587347507477,-0.1704042553901672,2704.686931,walking,2,2020-03-15 14:36:16.618 +0100,605972177.0105281,0,-6.36,101.2971
2020-03-15 14:36:19.866 +0100,2707.930116041667,0.8661041259765625,0.3905029296875,-0.284454345703125,2707.925092041667,-2.778185664716479,1.425690820452506,0.08135785863753008,-0.3291329443454742,0.6021660566329956,0.820484459400177,-0.1024961471557617,0.4808962941169739,-0.06867086887359619,XArbitraryZVertical,0.648249875774255,0.08782269350067395,-0.7386283786343515,0.1627495900796664,0.986217737197876,-0.08126813918352127,-0.1441185474395752,2704.686931,walking,2,2020-03-15 14:36:16.618 +0100,605972177.0105281,0,-6.36,101.2971
2020-03-15 14:36:19.905 +0100,2707.970306041667,0.7547760009765625,0.334869384765625,-0.4148712158203125,2707.965283041667,-2.754060075978762,1.44541741227621,0.0776341822102363,-0.5789117217063904,0.5013428926467896,-0.8054001927375793,-0.216188371181488,0.4163780808448792,-0.2671009302139282,XArbitraryZVertical,0.6541565232836645,0.09870275404859594,-0.7304840906331966,0.1694990392129064,0.9891619086265564,-0.07755622267723083,-0.1246740221977234,2704.686931,walking,2,2020-03-15 14:36:16.618 +0100,605972177.0105281,0,-6.36,101.2971
2020-03-15 14:36:19.945 +0100,2708.010497041667,0.89373779296875,0.41021728515625,-0.4694061279296875,2708.005473041667,-2.755288832019424,1.462386991534494,0.01755743834912342,0.404427170753479,0.2971059679985046,-2.070907115936279,-0.1564582586288452,0.4088377356529236,-0.3535562753677368,XArbitraryZVertical,0.6565700310240224,0.1217603233449397,-0.7293822082788729,0.1486331648807285,0.9939762353897095,-0.01755653694272041,-0.108180433511734,2704.686931,walking,2,2020-03-15 14:36:16.618 +0100,605972177.0105281,0,-6.36,101.2971
2020-03-15 14:36:19.985 +0100,2708.050687041667,1.0223388671875,0.212188720703125,-0.5625457763671875,2708.045663041667,-2.808345609488448,1.460652987426797,-0.07280301447001544,1.477302670478821,-0.3191940188407898,-2.520529747009277,0.01590335369110107,0.2183831930160522,-0.4700424671173096,XArbitraryZVertical,0.6529412746301398,0.1373058403740709,-0.7381792892809687,0.09952957606997455,0.9913074374198914,0.07273872196674347,-0.1096295937895775,2704.686931,walking,2,2020-03-15 14:36:16.618 +0100,605972177.0105281,0,-6.36,101.2971
2020-03-15 14:36:20.025 +0100,2708.090877041667,0.9227447509765625,0.00177001953125,-0.47418212890625,2708.085853041667,-2.858420330059284,1.426349687022292,-0.1620351114162155,0.08132030069828033,-1.080977439880371,-2.061864376068115,-0.005926609039306641,-0.1310241520404816,-0.3592586517333984,XArbitraryZVertical,0.6369300070236346,0.1526122534828818,-0.753736391343595,0.05395555622451743,0.9766232371330261,0.161326989531517,-0.142059326171875,2704.686931,walking,2,2020-03-15 14:36:16.618 +0100,605972177.0105281,0,-6.36,101.2971
2020-03-15 14:36:20.065 +0100,2708.131068041667,0.8104705810546875,0.050750732421875,-0.5083160400390625,2708.126044041667,-2.832802230976334,1.377458902825687,-0.2342759692532536,-1.670519113540649,-1.585845828056335,-1.286496639251709,-0.1229625940322876,-0.1808098256587982,-0.2929468154907227,XArbitraryZVertical,0.609817259220378,0.1862246333036378,-0.7690651956106271,0.04452069287867536,0.9545601606369019,0.2321387976408005,-0.1868865936994553,2704.686931,walking,2,2020-03-15 14:36:16.618 +0100,605972177.0105281,0,-6.36,101.2971
2020-03-15 14:36:20.106 +0100,2708.171258041667,0.7830047607421875,0.1640167236328125,-0.6077117919921875,2708.166234041667,-2.770261367302574,1.324649636628123,-0.2912880193929446,-1.620027542114258,-1.775927424430847,-0.9074935913085938,-0.1458673477172852,-0.1539027392864227,-0.3389737606048584,XArbitraryZVertical,0.5768576748534492,0.2247959349675702,-0.7832820104943421,0.05631458360962796,0.9290030598640442,0.2871862351894379,-0.2334040254354477,2704.686931,walking,2,2020-03-15 14:36:16.618 +0100,605972177.0105281,0,-6.36,101.2971
2020-03-15 14:36:20.146 +0100,2708.211448041667,0.8627166748046875,0.1331939697265625,-0.7535247802734375,2708.206424041667,-2.72995544111637,1.262874152066972,-0.3416762404519164,-0.845317006111145,-1.944715619087219,-1.046496629714966,-0.06417512893676758,-0.1694808900356293,-0.4589981436729431,XArbitraryZVertical,0.5413894893769098,0.2532146637971456,-0.7991510811488959,0.06432211895930284,0.8978785872459412,0.3350669145584106,-0.2855595052242279,2704.686931,walking,2,2020-03-15 14:36:16.618 +0100,605972177.0105281,0,-6.36,101.2971
2020-03-15 14:36:20.186 +0100,2708.251638041667,0.9996490478515625,-0.051055908203125,-0.591522216796875,2708.246615041667,-2.721988907371601,1.182714779329199,-0.3926225159522135,-0.5419321060180664,-2.191008806228638,-1.161356091499329,0.1137688159942627,-0.3921521902084351,-0.2946418523788452,XArbitraryZVertical,0.5010664005155152,0.272254942885482,-0.8190314769069297,0.06322319971052737,0.8552039861679077,0.3826127052307129,-0.3496194183826447,2704.686931,walking,2,2020-03-15 14:36:16.618 +0100,605972177.0105281,0,-6.36,101.2971
2020-03-15 14:36:20.226 +0100,2708.291829041667,0.9428253173828125,-0.3168792724609375,-0.4948883056640625,2708.286805041667,-2.699072375474477,1.100484981610194,-0.4486092333011247,-1.728980183601379,-2.394023418426514,-0.8480175137519836,0.196208119392395,-0.7161256074905396,-0.06957054138183594,XArbitraryZVertical,0.4557580867791894,0.2968546359456325,-0.8363093403056189,0.06890915303749431,0.8032214641571045,0.4337128102779388,-0.4083237946033478,2704.686931,walking,2,2020-03-15 14:36:16.618 +0100,605972179.5788299,0,-6.44,101.3015
2020-03-15 14:36:20.266 +0100,2708.332019041667,0.860626220703125,-0.2250213623046875,-0.4445953369140625,2708.326995041667,-2.612659268617206,1.042432897355135,-0.5140300146240959,-2.933664083480835,-2.488658428192139,-0.1174647286534309,0.1255475282669067,-0.7786506414413452,-0.01545274257659912,XArbitraryZVertical,0.4072140799998981,0.3386592978258082,-0.8426532681954056,0.09706722565473634,0.7520259618759155,0.491690456867218,-0.4389731585979462,2704.686931,walking,2,2020-03-15 14:36:16.618 +0100,605972179.5788299,0,-6.44,101.3015
2020-03-15 14:36:20.307 +0100,2708.372209041667,0.791015625,-0.076385498046875,-0.35504150390625,2708.367186041667,-2.499135783987386,1.005390484029981,-0.5628923469831865,-2.33247709274292,-2.184169769287109,0.5802851319313049,0.1030970811843872,-0.6309589147567749,0.06727665662765503,XArbitraryZVertical,0.3623139166095655,0.3770664049197906,-0.840999034945459,0.1388166894492933,0.7140974998474121,0.5336345434188843,-0.4530991017818451,2704.686931,walking,2,2020-03-15 14:36:16.618 +0100,605972179.5788299,0,-6.44,101.3015
2020-03-15 14:36:20.347 +0100,2708.412400041667,0.9633331298828125,-0.000244140625,-0.2706451416015625,2708.407376041667,-2.389067935889103,0.9880522989917881,-0.5811172025022354,-2.226302862167358,-1.692496776580811,1.111203074455261,0.2152599096298218,-0.5592461824417114,0.1869685649871826,XArbitraryZVertical,0.3298362487274967,0.4015181034207649,-0.8344332706431482,0.1836093458945151,0.6978976130485535,0.5489580631256104,-0.4599825143814087,2704.686931,walking,2,2020-03-15 14:36:16.618 +0100,605972179.5788299,0,-6.44,101.3015
2020-03-15 14:36:20.387 +0100,2708.452591625,1.044509887695312,0.0166015625,-0.258544921875,2708.447567625,-2.256344527305061,0.9983601218020777,-0.5947626625548059,-2.707568168640137,-1.491553544998169,1.262097358703613,0.3316175937652588,-0.549024760723114,0.1931065320968628,XArbitraryZVertical,0.3033979817930803,0.4285058995189922,-0.8186214348692245,0.2327900135135054,0.6962399482727051,0.5603122115135193,-0.4486647248268127,2704.686931,walking,2,2020-03-15 14:36:16.618 +0100,605972179.5788299,0,-6.44,101.3015
2020-03-15 14:36:20.427 +0100,2708.492781625,1.214324951171875,-0.058380126953125,-0.075164794921875,2708.487757625,-2.116419128346592,1.022503295850607,-0.6083224106774651,-2.521780729293823,-1.200936555862427,1.271113395690918,0.4520804286003113,-0.569069504737854,0.2808565497398376,XArbitraryZVertical,0.2787159569505993,0.4565678489906489,-0.7970224789549941,0.2803895002404651,0.7003194093704224,0.5714915990829468,-0.4277264177799225,2704.686931,walking,2,2020-03-15 14:36:16.618 +0100,605972179.5788299,0,-6.44,101.3015
2020-03-15 14:36:20.467 +0100,2708.532971625,1.437789916992188,-0.3202667236328125,0.1899261474609375,2708.527948625,-1.959684625154037,1.063915109393061,-0.6161689081757027,-3.454718351364136,-1.328927516937256,1.689977645874023,0.6838036775588989,-0.8207147717475891,0.5284821391105652,XArbitraryZVertical,0.2557678248413155,0.4863066077330628,-0.7676579493172789,0.3298331318707942,0.7134844660758972,0.5779128670692444,-0.3961774110794067,2704.686931,walking,2,2020-03-15 14:36:16.618 +0100,605972179.5788299,0,-6.44,101.3015
2020-03-15 14:36:20.508 +0100,2708.573162625,1.438705444335938,-0.3914642333984375,0.353515625,2708.568138625,-1.713147467738386,1.139581208091825,-0.6287928523799194,-5.7685546875,-2.134401321411133,2.270880460739136,0.7282110452651978,-1.012855410575867,0.6620634794235229,XArbitraryZVertical,0.2170731950142512,0.5327880068582651,-0.7143160528966956,0.3984580678533026,0.7347050905227661,0.5881689190864563,-0.3380323350429535,2704.686931,walking,2,2020-03-15 14:36:16.618 +0100,605972179.5788299,0,-6.44,101.3015
2020-03-15 14:36:20.548 +0100,2708.613352625,1.471160888671875,-0.2388916015625,0.38330078125,2708.608328625,-1.370366948509801,1.241365283191618,-0.6322181729217347,-6.651984214782715,-2.875043153762817,2.543366670608521,0.6963728666305542,-0.8623478412628174,0.6553202867507935,XArbitraryZVertical,0.1539921064762533,0.5880457336376314,-0.6292706649781517,0.4842592626014965,0.7633386254310608,0.5909356474876404,-0.2609772980213165,2704.686931,walking,2,2020-03-15 14:36:16.618 +0100,605972179.5788299,0,-6.44,101.3015
2020-03-15 14:36:20.588 +0100,2708.653542625,1.645538330078125,-0.3192291259765625,0.3441314697265625,2708.648519625,-1.040694559365766,1.309777547303437,-0.604294568190905,-5.544477939605713,-3.199040174484253,2.639440774917603,0.7801452279090881,-0.8928316831588745,0.5665592551231384,XArbitraryZVertical,0.0843294400089462,0.621857967136079,-0.5337133674831631,0.5668607773044146,0.7950292825698853,0.5681816935539246,-0.2123624235391617,2704.686931,walking,2,2020-03-15 14:36:16.618 +0100,605972179.5788299,0,-6.44,101.3015
2020-03-15 14:36:20.628 +0100,2708.693733625,1.901321411132812,-0.244964599609375,0.2976531982421875,2708.688709625,-0.7948663719368684,1.314644036728032,-0.5422054304234699,-3.538297414779663,-3.20401406288147,2.9595787525177,1.021986246109009,-0.7955403923988342,0.5339716076850891,XArbitraryZVertical,0.03238068679496567,0.6248525857937851,-0.4460809821421142,0.6399393874932623,0.8286243677139282,0.5160263776779175,-0.2170214802026749,2704.686931,walking,2,2020-03-15 14:36:16.618 +0100,605972179.5788299,0,-6.44,101.3015
2020-03-15 14:36:20.669 +0100,2708.733923625,1.862030029296875,-0.078887939453125,0.2322845458984375,2708.728899625,-0.6456295943420989,1.259681769714758,-0.4472364763849196,-1.53592836856842,-3.061162710189819,3.330530166625977,0.9941878914833069,-0.5186905860900879,0.5050410628318787,XArbitraryZVertical,0.01225380436346698,0.6015347032529266,-0.3738557381735946,0.705859625777738,0.8583604097366333,0.4324754774570465,-0.2760116755962372,2704.686931,walking,2,2020-03-15 14:36:16.618 +0100,605972179.5788299,0,-6.44,101.3015
2020-03-15 14:36:20.709 +0100,2708.774113625,1.960845947265625,-0.142669677734375,0.40179443359375,2708.769089625,-0.5444886239699916,1.178571811519127,-0.3337522830463509,-1.254017353057861,-2.880872964859009,3.563450813293457,1.053085207939148,-0.4568195939064026,0.7199278473854065,XArbitraryZVertical,0.01436476334613081,0.5649932346172023,-0.3093507283233472,0.7647734672734792,0.8730711936950684,0.3275905549526215,-0.3611525893211365,2704.686931,walking,2,2020-03-15 14:36:16.618 +0100,605972179.5788299,0,-6.44,101.3015
2020-03-15 14:36:20.749 +0100,2708.814303625,2.102920532226562,0.0690460205078125,0.4781951904296875,2708.809280625,-0.4140134687562792,1.102504672042043,-0.2291048142981104,-2.295524835586548,-2.722365617752075,3.77306866645813,1.255542516708374,-0.2423967868089676,0.9133191108703613,XArbitraryZVertical,0.01165093002888973,0.5292258936997415,-0.2325265394962234,0.8159138896983364,0.8690237998962402,0.2271058261394501,-0.439568430185318,2704.686931,walking,2,2020-03-15 14:36:16.618 +0100,605972179.5788299,0,-6.44,101.3015
2020-03-15 14:36:20.789 +0100,2708.854494625,1.902923583984375,0.327606201171875,0.4497222900390625,2708.849470625,-0.244675143907475,1.028433710816308,-0.1460937851252996,-2.782465696334839,-2.492413759231567,3.820980310440063,1.11737847328186,0.1400078386068344,0.9734122753143311,XArbitraryZVertical,-0.003206789936678594,0.4946296567860541,-0.1415959345203402,0.8574856824834409,0.8473675847053528,0.1455746442079544,-0.5106624364852905,2704.686931,walking,2,2020-03-15 14:36:16.618 +0100,605972179.5788299,0,-6.44,101.3015
2020-03-15 14:36:20.829 +0100,2708.894684625,1.74859619140625,0.4106903076171875,0.3992767333984375,2708.889660625,-0.07145065943688539,0.956610780535387,-0.07779300906951271,-2.40673565864563,-2.011895656585693,3.693846940994263,0.9489861130714417,0.3241708874702454,0.9867023229598999,XArbitraryZVertical,-0.01807309730012397,0.4608668630408109,-0.04957253605132457,0.8858993538182546,0.8147714734077454,0.07771456986665726,-0.5745502114295959,2704.686931,walking,2,2020-03-15 14:36:16.618 +0100,605972179.5788299,0,-6.44,101.3015
2020-03-15 14:36:20.869 +0100,2708.934874625,1.6666259765625,0.4134674072265625,0.423736572265625,2708.929851625,0.08023071255521573,0.8937058881260076,-0.009782872572123829,-1.604726433753967,-1.465735554695129,3.554158926010132,0.9391385912895203,0.408018171787262,1.036575317382812,XArbitraryZVertical,-0.02173776213358413,0.4315998867926382,0.0340543285177031,0.9011600401614087,0.7793616652488708,0.009782716631889343,-0.6264980435371399,2704.686931,walking,2,2020-03-15 14:36:16.618 +0100,605972179.5788299,0,-6.44,101.3015
2020-03-15 14:36:20.909 +0100,2708.975065625,1.445343017578125,0.4656219482421875,0.4236297607421875,2708.970041625,0.2125183137271453,0.8442207599151167,0.06179563574729666,-1.159049034118652,-0.8030754923820496,3.367988586425781,0.7166751623153687,0.5158583521842957,1.092196941375732,XArbitraryZVertical,-0.01540795377238751,0.4101702405964076,0.1092889372142333,0.9053059977320758,0.7460269927978516,-0.06175631284713745,-0.6630459427833557,2704.686931,walking,2,2020-03-15 14:36:16.618 +0100,605972179.5788299,0,-6.44,101.3015
2020-03-15 14:36:20.950 +0100,2709.015255625,1.337814331054688,0.4517822265625,0.3955535888671875,2709.010231625,0.3319430660073049,0.8122773497370833,0.1307615495796159,-0.8723943829536438,-0.2229327112436295,3.178367376327515,0.6614243984222412,0.5836372375488281,1.089351892471313,XArbitraryZVertical,-0.005934770968772809,0.3987195598657943,0.1769035233042407,0.8998292822489593,0.7196588516235352,-0.1303892284631729,-0.6819750070571899,2704.686931,walking,2,2020-03-15 14:36:16.618 +0100,605972179.5788299,0,-6.44,101.3015
2020-03-15 14:36:20.990 +0100,2709.055445625,1.185012817382812,0.498748779296875,0.268157958984375,2709.050421625,0.4382086768964983,0.797678913423619,0.2010008961753708,-0.4574938416481018,0.3381042778491974,2.928564310073853,0.5223311185836792,0.6924341917037964,0.9844174385070801,XArbitraryZVertical,0.006262299113049101,0.3972478922338403,0.2373171171740834,0.8864736920582916,0.7013273239135742,-0.1996501833200455,-0.6843097805976868,2704.686931,walking,2,2020-03-15 14:36:16.618 +0100,605972179.5788299,0,-6.44,101.3015
2020-03-15 14:36:21.030 +0100,2709.095635625,1.169219970703125,0.4926300048828125,0.2555694580078125,2709.090612625,0.5244511532155042,0.8018498763381078,0.2735909273357944,0.03991305083036423,0.8803439736366272,2.575524091720581,0.46207195520401,0.7601215839385986,0.9222595691680908,XArbitraryZVertical,0.02103828319882006,0.4059554059640506,0.2878456277591065,0.8671231179525303,0.6919150948524475,-0.2701905369758606,-0.6695151925086975,2704.686931,walking,2,2020-03-15 14:36:16.618 +0100,605972179.5788299,0,-6.44,101.3015
2020-03-15 14:36:21.072 +0100,2709.135826625,1.146942138671875,0.471343994140625,0.2544403076171875,2709.130802625,0.587204881791817,0.8292521981053841,0.3506935948240266,0.3563506007194519,1.451120972633362,2.249719381332397,0.4635956883430481,0.8045806884765625,0.9033119678497314,XArbitraryZVertical,0.0380380195389656,0.4259042878107412,0.3280881165355957,0.8423282616612143,0.6925427913665771,-0.3435492813587189,-0.6343172788619995,2704.686931,walking,2,2020-03-15 14:36:16.618 +0100,605972179.5788299,0,-6.44,101.3015
2020-03-15 14:36:21.144 +0100,2709.176016625,1.0684814453125,0.460418701171875,0.132293701171875,2709.170992625,0.6345800779276665,0.8813368717975132,0.4220084747811048,0.3375743329524994,2.007478475570679,1.854617118835449,0.3745436668395996,0.8759965896606445,0.775316596031189,XArbitraryZVertical,0.04985035277103728,0.455366746702268,0.3608056965191358,0.812388564533831,0.7038968801498413,-0.4095935523509979,-0.5803121328353882,2704.686931,walking,2,2020-03-15 14:36:16.618 +0100,605972179.5788299,0,-6.44,101.3015
2020-03-15 14:36:21.151 +0100,2709.216206625,1.134445190429688,0.5431060791015625,-0.0113525390625,2709.211183625,0.6593240069614039,0.9610147560691312,0.4868435603545742,0.7530525326728821,2.474076509475708,1.360649466514587,0.365678071975708,1.004356145858765,0.5194827318191528,XArbitraryZVertical,0.0569993804141543,0.493635579236519,0.3840116303499935,0.778209430751048,0.7245268821716309,-0.4678385257720947,-0.50614994764328,2704.686931,walking,2,2020-03-15 14:36:16.618 +0100,605972179.5788299,0,-6.44,101.3015
2020-03-15 14:36:21.191 +0100,2709.256397625,1.118606567382812,0.6816864013671875,-0.22125244140625,2709.251373625,0.6446202936829201,1.07403190675943,0.5459148830365685,1.636832475662231,2.806734085083008,0.7779175043106079,0.3412504196166992,1.149178266525269,0.2801578044891357,XArbitraryZVertical,0.06366014544855998,0.540639163425548,0.3929039432310212,0.7411363567589779,0.7513500452041626,-0.5192002058029175,-0.407313346862793,2704.686931,walking,2,2020-03-15 14:36:16.618 +0100,605972179.5788299,0,-6.44,101.3015
