loggingTime(txt),locationTimestamp_since1970(s),locationLatitude(WGS84),locationLongitude(WGS84),locationAltitude(m),locationSpeed(m/s),locationCourse(°),locationVerticalAccuracy(m),locationHorizontalAccuracy(m),locationFloor(Z),accelerometerTimestamp_sinceReboot(s),accelerometerAccelerationX(G),accelerometerAccelerationY(G),accelerometerAccelerationZ(G),motionTimestamp_sinceReboot(s),motionYaw(rad),motionRoll(rad),motionPitch(rad),motionRotationRateX(rad/s),motionRotationRateY(rad/s),motionRotationRateZ(rad/s),motionUserAccelerationX(G),motionUserAccelerationY(G),motionUserAccelerationZ(G),motionAttitudeReferenceFrame(txt),motionQuaternionX(R),motionQuaternionY(R),motionQuaternionZ(R),motionQuaternionW(R),motionGravityX(G),motionGravityY(G),motionGravityZ(G),activityTimestamp_sinceReboot(s),activity(txt),activityActivityConfidence(Z),activityActivityStartDate(txt),altimeterTimestamp_sinceReboot(s),altimeterReset(bool),altimeterRelativeAltitude(m),altimeterPressure(kPa)
2020-03-19 17:49:57.380 +0100,1584636596.999755,52.52523636200229,13.4434893893612,53.31132,0,217.9758156821553,10.05514664436519,14.25885196134003,-9999,36036.243500875,0.06597900390625,-0.1565704345703125,-0.9519500732421875,36036.223405875,0.3734869356470543,0.07568442869472118,0.1738370681213682,-0.02376162074506283,0.01248114090412855,-0.07730427384376526,0.006201542913913727,0.0450463593006134,-0.007515013217926025,XArbitraryZVertical,0.07824121459136821,0.0531405225322,0.188053848121163,0.9775940437997838,0.07447259128093719,-0.1729628443717957,-0.9821087718009949,36035.18341179167,unknown,2,2020-03-19 17:49:56.289 +0100,606329396.7618334,0,-5.88,101.8825
2020-03-19 17:49:57.394 +0100,1584636596.999755,52.52523636200229,13.4434893893612,53.31132,0,217.9758156821553,10.05514664436519,14.25885196134003,-9999,36036.263594875,0.0614776611328125,-0.21099853515625,-0.93902587890625,36036.243500875,0.37210132399183,0.07642272996107645,0.1703553471759765,-0.2597057223320007,0.02581961452960968,-0.1271370053291321,-0.01788445562124252,0.01479114592075348,0.03446710109710693,XArbitraryZVertical,0.0765045364471084,0.0531322481623148,0.1873679458446562,0.9778635993216344,0.07524318993091583,-0.1695325672626495,-0.9826480150222778,36035.18341179167,unknown,2,2020-03-19 17:49:56.289 +0100,606329396.7618334,0,-5.88,101.8825
2020-03-19 17:49:57.395 +0100,1584636596.999755,52.52523636200229,13.4434893893612,53.31132,0,217.9758156821553,10.05514664436519,14.25885196134003,-9999,36036.283689875,0.094482421875,-0.1457672119140625,-0.9470672607421875,36036.263594875,0.3698634377803114,0.07813276241483284,0.1627300628770621,-0.4435375928878784,0.09299913048744202,-0.1857043504714966,-0.02289821207523346,-0.05089503526687622,0.04566800594329834,XArbitraryZVertical,0.07267057330519693,0.05319692947796582,0.1862514545715505,0.9783656895089081,0.07702209800481796,-0.1620128005743027,-0.983778178691864,36035.18341179167,unknown,2,2020-03-19 17:49:56.289 +0100,606329396.7618334,0,-5.88,101.8825
2020-03-19 17:49:57.408 +0100,1584636596.999755,52.52523636200229,13.4434893893612,53.31132,0,217.9758156821553,10.05514664436519,14.25885196134003,-9999,36036.303784875,0.0802459716796875,-0.191802978515625,-0.927337646484375,36036.283689875,0.3674269688468483,0.08021189876411773,0.1548778635219318,-0.2652399837970734,0.02765325643122196,-0.09803185611963272,-0.01935137063264847,0.009894117712974548,0.04414945840835571,XArbitraryZVertical,0.06869584948224562,0.05342352724376893,0.1850375110165005,0.9788707315152666,0.07916683703660965,-0.1542594283819199,-0.9848536252975464,36035.18341179167,unknown,2,2020-03-19 17:49:56.289 +0100,606329396.7618334,0,-5.88,101.8825
2020-03-19 17:49:57.428 +0100,1584636596.999755,52.52523636200229,13.4434893893612,53.31132,0,217.9758156821553,10.05514664436519,14.25885196134003,-9999,36036.323879875,0.0619659423828125,-0.179931640625,-0.950897216796875,36036.303784875,0.3659229688540763,0.08108724354026957,0.1503662753526449,-0.2317533791065216,0.06906761229038239,-0.1132015213370323,0.01970905810594559,-0.0256318598985672,0.05521565675735474,XArbitraryZVertical,0.06644419790731489,0.05339829602584366,0.1842730382607017,0.9791716697737903,0.08008445054292679,-0.1498002856969833,-0.9854675531387329,36035.18341179167,unknown,2,2020-03-19 17:49:56.289 +0100,606329396.7618334,0,-5.88,101.8825
2020-03-19 17:49:57.448 +0100,1584636596.999755,52.52523636200229,13.4434893893612,53.31132,0,217.9758156821553,10.05514664436519,14.25885196134003,-9999,36036.343974875,0.083709716796875,-0.1627655029296875,-0.9762115478515625,36036.323879875,0.3634636472175714,0.08360764688561023,0.1445837954407364,-0.3096457421779633,0.1540297418832779,-0.1670408844947815,-0.02570731937885284,-0.0414833277463913,0.04249072074890137,XArbitraryZVertical,0.06344402170751005,0.05403883397757435,0.18307246337036,0.9795606590261963,0.0826389268040657,-0.1440805792808533,-0.9861093163490295,36035.18341179167,unknown,2,2020-03-19 17:49:56.289 +0100,606329396.7618334,0,-5.88,101.8825
2020-03-19 17:49:57.468 +0100,1584636596.999755,52.52523636200229,13.4434893893612,53.31132,0,217.9758156821553,10.05514664436519,14.25885196134003,-9999,36036.364069875,0.096221923828125,-0.146942138671875,-0.9815216064453125,36036.364069875,0.3583706068936589,0.09230860648971302,0.1316610783368269,-0.2732632458209991,0.1988786309957504,-0.1277478635311127,0.002630792558193207,-0.02059133350849152,0.006900191307067871,XArbitraryZVertical,0.05645557652144077,0.05701276477856201,0.1806390414267424,0.9802712988160399,0.0913797914981842,-0.1312810182571411,-0.9871246218681335,36035.18341179167,unknown,2,2020-03-19 17:49:56.289 +0100,606329396.7618334,0,-5.88,101.8825
2020-03-19 17:49:57.491 +0100,1584636596.999755,52.52523636200229,13.4434893893612,53.31132,0,217.9758156821553,10.05514664436519,14.25885196134003,-9999,36036.384164875,0.0979461669921875,-0.1407470703125,-0.984283447265625,36036.364069875,0.3583706068936589,0.09230860648971302,0.1316610783368269,-0.2732632458209991,0.1988786309957504,-0.1277478635311127,0.002630792558193207,-0.02059133350849152,0.006900191307067871,XArbitraryZVertical,0.05645557652144077,0.05701276477856201,0.1806390414267424,0.9802712988160399,0.0913797914981842,-0.1312810182571411,-0.9871246218681335,36035.18341179167,unknown,2,2020-03-19 17:49:56.289 +0100,606329396.7618334,0,-5.88,101.8825
2020-03-19 17:49:57.508 +0100,1584636596.999755,52.52523636200229,13.4434893893612,53.31132,0,217.9758156821553,10.05514664436519,14.25885196134003,-9999,36036.404259875,0.11224365234375,-0.1195831298828125,-0.9930419921875,36036.384164875,0.3567129122930698,0.09604541876898087,0.1272501493838712,-0.1657080501317978,0.1521683633327484,-0.0773436576128006,0.0007650107145309448,-0.01332283020019531,0.001533925533294678,XArbitraryZVertical,0.05400207513799304,0.05841441058151602,0.1798530516731285,0.9804714778643998,0.09512244910001755,-0.126907005906105,-0.9873430728912354,36035.18341179167,unknown,2,2020-03-19 17:49:56.289 +0100,606329396.7618334,0,-5.88,101.8825
2020-03-19 17:49:57.528 +0100,1584636596.999755,52.52523636200229,13.4434893893612,53.31132,0,217.9758156821553,10.05514664436519,14.25885196134003,-9999,36036.424354875,0.0996856689453125,-0.123870849609375,-0.98187255859375,36036.404259875,0.355618409650718,0.09873758720342485,0.124212161823612,-0.1358779817819595,0.1085385978221893,-0.05678431317210197,0.01302336156368256,0.005696885287761688,-0.006510138511657715,XArbitraryZVertical,0.05230150421489386,0.05944154787440956,0.1793322580392867,0.9805973184674138,0.09781774878501892,-0.1238930001854897,-0.9874625205993652,36035.18341179167,unknown,2,2020-03-19 17:49:56.289 +0100,606329396.7618334,0,-5.88,101.8825
2020-03-19 17:49:57.548 +0100,1584636596.999755,52.52523636200229,13.4434893893612,53.31132,0,217.9758156821553,10.05514664436519,14.25885196134003,-9999,36036.444449875,0.0985870361328125,-0.1288299560546875,-0.9792327880859375,36036.424354875,0.3549459469339926,0.1006274622530176,0.1218410609848283,-0.1001048013567924,0.0788634866476059,-0.03355256095528603,0.003590315580368042,-0.002271510660648346,0.002656459808349609,XArbitraryZVertical,0.0509884220991339,0.06014555850592281,0.1790061705750465,0.9806831462028868,0.09971299022436142,-0.1215398237109184,-0.9875653982162476,36035.18341179167,unknown,2,2020-03-19 17:49:56.289 +0100,606329396.7618334,0,-5.88,101.8825
2020-03-19 17:49:57.568 +0100,1584636596.999755,52.52523636200229,13.4434893893612,53.31132,0,217.9758156821553,10.05514664436519,14.25885196134003,-9999,36036.464544875,0.09576416015625,-0.1414642333984375,-0.9681243896484375,36036.444449875,0.3544428542083759,0.1022743633772291,0.1198191191366918,-0.0924370288848877,0.08154904842376709,-0.03198815509676933,-0.002241745591163635,-0.004965335130691528,0.009584546089172363,XArbitraryZVertical,0.0498637610442574,0.06076569221222342,0.1787613922964978,0.9807473775808311,0.1013641580939293,-0.119532622396946,-0.9876422882080078,36035.18341179167,unknown,2,2020-03-19 17:49:56.289 +0100,606329396.7618334,0,-5.88,101.8825
2020-03-19 17:49:57.588 +0100,1584636596.999755,52.52523636200229,13.4434893893612,53.31132,0,217.9758156821553,10.05514664436519,14.25885196134003,-9999,36036.484639875,0.0934295654296875,-0.14251708984375,-0.959381103515625,36036.464544875,0.3539450525037946,0.1040446933501555,0.1181382840003699,-0.08232130110263824,0.0936482846736908,-0.03490900993347168,-0.005719706416130066,-0.01789526641368866,0.01477473974227905,XArbitraryZVertical,0.04889567984069172,0.06147648275999128,0.1785272045307394,0.9807944614305159,0.1031331717967987,-0.1178636699914932,-0.9876596927642822,36035.18341179167,unknown,2,2020-03-19 17:49:56.289 +0100,606329396.7618334,0,-5.88,101.8825
2020-03-19 17:49:57.608 +0100,1584636596.999755,52.52523636200229,13.4434893893612,53.31132,0,217.9758156821553,10.05514664436519,14.25885196134003,-9999,36036.504734875,0.093048095703125,-0.14544677734375,-0.96356201171875,36036.484639875,0.353357345352433,0.1063456650945072,0.1160417596722914,-0.1168074980378151,0.1250219345092773,-0.04077698290348053,-0.01145121455192566,-0.0266302302479744,0.02747368812561035,XArbitraryZVertical,0.04767935519624397,0.06241005937745131,0.1782511495653449,0.980845635646207,0.105431467294693,-0.1157815009355545,-0.9876633286476135,36035.18341179167,unknown,2,2020-03-19 17:49:56.289 +0100,606329396.7618334,0,-5.88,101.8825
2020-03-19 17:49:57.629 +0100,1584636596.999755,52.52523636200229,13.4434893893612,53.31132,0,217.9758156821553,10.05514664436519,14.25885196134003,-9999,36036.524829875,0.0919036865234375,-0.1393890380859375,-0.9709014892578125,36036.504734875,0.3527632079114793,0.1090676167918553,0.113284185686425,-0.149704173207283,0.1401899755001068,-0.04431196674704552,-0.01774405688047409,-0.03283339738845825,0.02748137712478638,XArbitraryZVertical,0.04610174471972581,0.06349387777642715,0.1779644942739053,0.9809035231289581,0.1081537902355194,-0.1130420416593552,-0.9876863360404968,36035.18341179167,unknown,2,2020-03-19 17:49:56.289 +0100,606329396.7618334,0,-5.88,101.8825
2020-03-19 17:49:57.649 +0100,1584636596.999755,52.52523636200229,13.4434893893612,53.31132,0,217.9758156821553,10.05514664436519,14.25885196134003,-9999,36036.544924875,0.1116180419921875,-0.1269073486328125,-0.9622344970703125,36036.524829875,0.3523438195797997,0.1121934158925152,0.1104078196808613,-0.1275546550750732,0.1669758260250092,-0.02360252663493156,-0.02138553559780121,-0.0260634571313858,0.01625758409500122,XArbitraryZVertical,0.04442490745866021,0.06477041115204946,0.1777654598818,0.9809335313343432,0.1112765073776245,-0.1101836487650871,-0.9876624345779419,36035.18341179167,unknown,2,2020-03-19 17:49:56.289 +0100,606329396.7618334,0,-5.88,101.8825
2020-03-19 17:49:57.669 +0100,1584636596.999755,52.52523636200229,13.4434893893612,53.31132,0,217.9758156821553,10.05514664436519,14.25885196134003,-9999,36036.56502004167,0.1120758056640625,-0.14898681640625,-0.9200897216796875,36036.544924875,0.351696934670385,0.1156943822530161,0.1078646755689833,-0.1313770860433578,0.1622013002634048,-0.07336375862360001,-0.01141630113124847,-0.02424268424510956,0.02303403615951538,XArbitraryZVertical,0.04288645664952934,0.06625534156714954,0.1774655374501768,0.980957164693943,0.1147655695676804,-0.1076556369662285,-0.9875419735908508,36035.18341179167,unknown,2,2020-03-19 17:49:56.289 +0100,606329396.7618334,0,-5.88,101.8825
2020-03-19 17:49:57.689 +0100,1584636596.999755,52.52523636200229,13.4434893893612,53.31132,0,217.9758156821553,10.05514664436519,14.25885196134003,-9999,36036.58511504167,0.1192779541015625,-0.1830902099609375,-0.8123931884765625,36036.56502004167,0.3504547340218661,0.1191864276801805,0.1038648475888737,-0.2907987236976624,0.182376354932785,-0.10076043009758,-0.008810833096504211,-0.04123580455780029,0.05098575353622437,XArbitraryZVertical,0.04065460215822993,0.06760022439316754,0.1768322167075248,0.981074732276727,0.1182636544108391,-0.1036782041192055,-0.9875548481941223,36035.18341179167,unknown,2,2020-03-19 17:49:56.289 +0100,606329396.7618334,0,-5.88,101.8825
2020-03-19 17:49:57.709 +0100,1584636596.999755,52.52523636200229,13.4434893893612,53.31132,0,217.9758156821553,10.05514664436519,14.25885196134003,-9999,36036.60521004167,0.1284027099609375,-0.3090972900390625,-0.631378173828125,36036.58511504167,0.3494589542640273,0.1236889303365463,0.09472496518796385,-0.611855149269104,0.2807309329509735,-0.1265572607517242,-0.005479022860527039,-0.08284700661897659,0.1386532187461853,XArbitraryZVertical,0.0358025051056568,0.06901049697234057,0.1761964251262852,0.9812800035493937,0.1228206977248192,-0.09458336979150772,-0.9879114627838135,36035.18341179167,unknown,2,2020-03-19 17:49:56.289 +0100,606329396.7618334,0,-5.88,101.8825
2020-03-19 17:49:57.729 +0100,1584636596.999755,52.52523636200229,13.4434893893612,53.31132,0,217.9758156821553,10.05514664436519,14.25885196134003,-9999,36036.62530504167,0.1711578369140625,-0.4460296630859375,-0.407196044921875,36036.60521004167,0.349557496744253,0.1315019602083596,0.07879525464937151,-0.9949155449867249,0.4831686913967133,0.1260271817445755,-0.02661928534507751,-0.1683270186185837,0.2988981604576111,XArbitraryZVertical,0.02728720465279809,0.07148670540185943,0.1759283400865783,0.981424625318975,0.1307164430618286,-0.07871374487876892,-0.9882901310920715,36035.18341179167,unknown,2,2020-03-19 17:49:56.289 +0100,606329396.7618334,0,-5.88,101.8825
2020-03-19 17:49:57.749 +0100,1584636596.999755,52.52523636200229,13.4434893893612,53.31132,0,217.9758156821553,10.05514664436519,14.25885196134003,-9999,36036.64540004167,0.0932464599609375,-0.458221435546875,-0.1769256591796875,36036.62530504167,0.3659603453169461,0.1393518223123511,0.05432658431945847,-1.761151552200317,0.505486011505127,1.092565774917603,0.05648066103458405,-0.3993903696537018,0.5127253532409668,XArbitraryZVertical,0.01397838195172163,0.07336210730795535,0.1833116284835582,0.9802139687058657,0.1386963278055191,-0.05429986491799355,-0.9888452291488647,36035.18341179167,unknown,2,2020-03-19 17:49:56.289 +0100,606329396.7618334,0,-5.88,101.8825
2020-03-19 17:49:57.769 +0100,1584636596.999755,52.52523636200229,13.4434893893612,53.31132,0,217.9758156821553,10.05514664436519,14.25885196134003,-9999,36036.66549504167,0.16015625,-0.2097930908203125,-0.1418609619140625,36036.64540004167,0.3995821529020082,0.1524343133190561,0.01398989247205183,-2.642395734786987,0.9240590333938599,1.628369808197021,-0.03808882832527161,-0.4314757883548737,0.7618215680122375,XArbitraryZVertical,-0.008275551324571181,0.07601113061548692,0.1984055840231426,0.9771330487084605,0.1518298089504242,-0.01398943644016981,-0.9883076548576355,36035.18341179167,unknown,2,2020-03-19 17:49:56.289 +0100,606329396.7618334,0,-5.88,101.8825
2020-03-19 17:49:57.790 +0100,1584636596.999755,52.52523636200229,13.4434893893612,53.31132,0,217.9758156821553,10.05514664436519,14.25885196134003,-9999,36036.68559004167,0.2518768310546875,-0.215087890625,-0.282745361328125,36036.66549504167,0.4450892021126464,0.1727134170940643,-0.03545408156022467,-2.86254620552063,1.058773517608643,2.031087636947632,-0.01783038675785065,-0.293701171875,0.8401245474815369,XArbitraryZVertical,-0.03625784947323363,0.08021141056121249,0.2183640079049502,0.9718891998345233,0.1717480272054672,0.0354466550052166,-0.9845029711723328,36035.18341179167,unknown,2,2020-03-19 17:49:56.289 +0100,606329396.7618334,0,-5.88,101.8825
2020-03-19 17:49:57.810 +0100,1584636596.999755,52.52523636200229,13.4434893893612,53.31132,0,217.9758156821553,10.05514664436519,14.25885196134003,-9999,36036.70568504167,0.357208251953125,-0.117706298828125,-0.3528900146484375,36036.68559004167,0.5013167892068096,0.1993148285621766,-0.08530215356594047,-3.009382963180542,1.174477458000183,2.598230361938477,0.01555424928665161,-0.2842027544975281,0.7353362441062927,XArbitraryZVertical,-0.06575659671761923,0.08577210496063453,0.2424770617360574,0.9641183084615026,0.197277843952179,0.08519874513149261,-0.9766384363174438,36035.18341179167,unknown,2,2020-03-19 17:49:56.289 +0100,606329396.7618334,0,-5.88,101.8825
2020-03-19 17:49:57.830 +0100,1584636596.999755,52.52523636200229,13.4434893893612,53.31132,0,217.9758156821553,10.05514664436519,14.25885196134003,-9999,36036.72578004167,0.374114990234375,-0.100067138671875,-0.383697509765625,36036.70568504167,0.5711957796577057,0.2292492403496924,-0.1305478452485005,-2.886382579803467,0.9947415590286255,3.170366048812866,0.1090406775474548,-0.2850676476955414,0.6221215128898621,XArbitraryZVertical,-0.09432877347208903,0.09125113131605644,0.2721282306255928,0.9532688532158822,0.2253127694129944,0.1301773488521576,-0.9655506014823914,36035.18341179167,unknown,2,2020-03-19 17:49:56.289 +0100,606329396.7618334,0,-5.88,101.8825
2020-03-19 17:49:57.850 +0100,1584636596.999755,52.52523636200229,13.4434893893612,53.31132,0,217.9758156821553,10.05514664436519,14.25885196134003,-9999,36036.74587504167,0.2780303955078125,-0.0731658935546875,-0.3951416015625,36036.72578004167,0.6522348989065754,0.2590863568528879,-0.1663365108094714,-2.523639917373657,0.8659514784812927,3.681658983230591,0.1384702324867249,-0.2718764543533325,0.5675719976425171,XArbitraryZVertical,-0.1192769695896822,0.09555876666575804,0.3064193436002071,0.9395470583247405,0.2526614665985107,0.165570542216301,-0.9532830715179443,36035.18341179167,unknown,2,2020-03-19 17:49:56.289 +0100,606329396.7618334,0,-5.88,101.8825
2020-03-19 17:49:57.870 +0100,1584636596.999755,52.52523636200229,13.4434893893612,53.31132,0,217.9758156821553,10.05514664436519,14.25885196134003,-9999,36036.76597004167,0.3862457275390625,0.09375,-0.622528076171875,36036.74587504167,0.7418212582227568,0.2963431705745415,-0.1961715846189158,-2.805115938186646,1.257550477981567,3.940872192382812,0.006258696317672729,-0.2634100615978241,0.5608397722244263,XArbitraryZVertical,-0.1435225457280051,0.1018227978741635,0.3432954478213277,0.9225950763433219,0.2864236831665039,0.1949157863855362,-0.9380667805671692,36035.18341179167,unknown,2,2020-03-19 17:49:56.289 +0100,606329396.7618334,0,-5.88,101.8825
2020-03-19 17:49:57.890 +0100,1584636596.999755,52.52523636200229,13.4434893893612,53.31132,0,217.9758156821553,10.05514664436519,14.25885196134003,-9999,36036.78606504167,0.639007568359375,0.557281494140625,-0.863555908203125,36036.76597004167,0.8420779622269283,0.3446956248792258,-0.2291323999455108,-3.427992820739746,1.432375431060791,4.263343811035156,0.0198940634727478,-0.2199429720640182,0.3482517004013062,XArbitraryZVertical,-0.1724186601286884,0.1094624906721277,0.3821217273903431,0.9012617214090077,0.3290785253047943,0.2271326780319214,-0.91657954454422,36035.18341179167,unknown,2,2020-03-19 17:49:56.289 +0100,606329396.7618334,0,-5.88,101.8825
2020-03-19 17:49:57.910 +0100,1584636596.999755,52.52523636200229,13.4434893893612,53.31132,0,217.9758156821553,10.05514664436519,14.25885196134003,-9999,36036.80616004167,0.8435516357421875,0.885498046875,-1.1396484375,36036.78606504167,0.9526512997598801,0.4010493194595348,-0.2679702431071626,-3.953348636627197,1.416877746582031,4.175351142883301,0.1899743378162384,0.1847068071365356,0.09240061044692993,XArbitraryZVertical,-0.2068464027282237,0.115401575846176,0.4216561033096213,0.8752731997157785,0.3764519095420837,0.2647746801376343,-0.8877940773963928,36035.18341179167,unknown,2,2020-03-19 17:49:56.289 +0100,606329396.7618334,0,-5.88,101.8825
2020-03-19 17:49:57.930 +0100,1584636596.999755,52.52523636200229,13.4434893893612,53.31132,0,217.9758156821553,10.05514664436519,14.25885196134003,-9999,36036.82625504167,0.885406494140625,0.9882659912109375,-1.160079956054688,36036.80616004167,1.063719846068325,0.4594170851834351,-0.3088345328983701,-4.083820343017578,1.213351607322693,3.745887279510498,0.3812543749809265,0.5230205655097961,-0.2118277549743652,XArbitraryZVertical,-0.2431746797845875,0.1179552592808351,0.457757624132334,0.8470009190844624,0.4224465489387512,0.3039485216140747,-0.8539052605628967,36035.18341179167,unknown,2,2020-03-19 17:49:56.289 +0100,606329396.7618334,0,-5.88,101.8825
2020-03-19 17:49:57.950 +0100,1584636596.999755,52.52523636200229,13.4434893893612,53.31132,0,217.9758156821553,10.05514664436519,14.25885196134003,-9999,36036.84635004167,0.8798980712890625,0.8676910400390625,-0.8783416748046875,36036.82625504167,1.172122668598718,0.5159221678333122,-0.3480540946791922,-4.352745056152344,0.9371472597122192,3.427348136901855,0.417963832616806,0.652068555355072,-0.385640025138855,XArbitraryZVertical,-0.2784483785707753,0.1167303061891578,0.4899048916719688,0.8178225483018599,0.4637557864189148,0.341069221496582,-0.8176810741424561,36035.18341179167,unknown,2,2020-03-19 17:49:56.289 +0100,606329396.7618334,0,-5.88,101.8825
2020-03-19 17:49:57.970 +0100,1584636596.999755,52.52523636200229,13.4434893893612,53.31132,0,217.9758156821553,10.05514664436519,14.25885196134003,-9999,36036.86644504167,0.672088623046875,1.031692504882812,-0.56756591796875,36036.84635004167,1.288671620353049,0.5755869020117826,-0.4002605265404098,-5.704041957855225,0.7639728188514709,2.989514589309692,0.3949127197265625,0.4942272007465363,-0.2012144923210144,XArbitraryZVertical,-0.3194901042609297,0.1078983174769872,0.5193552693934035,0.7852096242008278,0.5013033151626587,0.3896583020687103,-0.7725680470466614,36035.18341179167,unknown,2,2020-03-19 17:49:56.289 +0100,606329396.7618334,0,-5.88,101.8825
2020-03-19 17:49:58.013 +0100,1584636596.999755,52.52523636200229,13.4434893893612,53.31132,0,217.9758156821553,10.05514664436519,14.25885196134003,-9999,36036.88654004167,0.576690673828125,1.279922485351562,-0.5052642822265625,36036.88654004167,1.51782548577013,0.711903241774985,-0.5315832616666311,-4.139298439025879,1.008570313453674,1.51879358291626,0.03873205184936523,0.72514808177948,0.147580087184906,XArbitraryZVertical,-0.4100260604354199,0.07455097030752963,0.5559305058707057,0.7192092534632881,0.5631274580955505,0.5068987607955933,-0.6526415944099426,36035.18341179167,unknown,2,2020-03-19 17:49:56.289 +0100,606329396.7618334,0,-5.88,101.8825
2020-03-19 17:49:58.016 +0100,1584636596.999755,52.52523636200229,13.4434893893612,53.31132,0,217.9758156821553,10.05514664436519,14.25885196134003,-9999,36036.90663404167,0.473876953125,1.149185180664062,-0.503082275390625,36036.88654004167,1.51782548577013,0.711903241774985,-0.5315832616666311,-4.139298439025879,1.008570313453674,1.51879358291626,0.03873205184936523,0.72514808177948,0.147580087184906,XArbitraryZVertical,-0.4100260604354199,0.07455097030752963,0.5559305058707057,0.7192092534632881,0.5631274580955505,0.5068987607955933,-0.6526415944099426,36035.18341179167,unknown,2,2020-03-19 17:49:56.289 +0100,606329396.7618334,0,-5.88,101.8825
2020-03-19 17:49:58.031 +0100,1584636596.999755,52.52523636200229,13.4434893893612,53.31132,0,217.9758156821553,10.05514664436519,14.25885196134003,-9999,36036.92672904167,0.517547607421875,0.8209381103515625,-0.3674774169921875,36036.90663404167,1.586271284491481,0.7711267068578046,-0.5582546184962862,-1.89346706867218,1.369302868843079,1.021742701530457,-0.1127942800521851,0.6939328908920288,0.09196114540100098,XArbitraryZVertical,-0.4367227257239741,0.07174267508030842,0.5619926876619024,0.698777837523806,0.5911343097686768,0.529706597328186,-0.6082525253295898,36035.18341179167,unknown,2,2020-03-19 17:49:56.289 +0100,606329396.7618334,0,-5.88,101.8825
2020-03-19 17:49:58.051 +0100,1584636596.999755,52.52523636200229,13.4434893893612,53.31132,0,217.9758156821553,10.05514664436519,14.25885196134003,-9999,36036.94682404167,0.57208251953125,0.569366455078125,-0.44232177734375,36036.92672904167,1.623641614605043,0.8219773777175516,-0.5639431533292445,-0.9906520247459412,1.711288809776306,0.8268702626228333,-0.1131567358970642,0.3652641177177429,0.1858837604522705,XArbitraryZVertical,-0.453958064599734,0.0790101799312265,0.5623547665385348,0.6866123412144607,0.6190696954727173,0.5345228910446167,-0.5753589272499084,36035.18341179167,unknown,2,2020-03-19 17:49:56.289 +0100,606329396.7618334,0,-5.88,101.8825
2020-03-19 17:49:58.071 +0100,1584636596.999755,52.52523636200229,13.4434893893612,53.31132,0,217.9758156821553,10.05514664436519,14.25885196134003,-9999,36036.96691904167,0.660552978515625,0.4766082763671875,-0.52227783203125,36036.94682404167,1.653961116742378,0.8744051575303317,-0.5648580118517765,-1.079232335090637,1.841086745262146,0.8052002787590027,-0.09416872262954712,0.07416212558746338,0.1314488649368286,XArbitraryZVertical,-0.4701880087194961,0.08953650299677837,0.5603623279859304,0.6759441369975879,0.6479946374893188,0.5352959036827087,-0.5418128967285156,36035.18341179167,unknown,2,2020-03-19 17:49:56.289 +0100,606329396.7618334,0,-5.88,101.8825
2020-03-19 17:49:58.091 +0100,1584636596.999755,52.52523636200229,13.4434893893612,53.31132,0,217.9758156821553,10.05514664436519,14.25885196134003,-9999,36036.98701404167,0.71099853515625,0.413818359375,-0.3559722900390625,36036.96691904167,1.691679726211627,0.9316002315343217,-0.5688479717595631,-1.71644926071167,1.825878858566284,0.8850234746932983,-0.03993338346481323,-0.04188990592956543,-0.01830661296844482,XArbitraryZVertical,-0.4889316438975294,0.09819568620490608,0.5583416338124592,0.6629917341081986,0.6761876344680786,0.538661777973175,-0.5026069283485413,36035.18341179167,unknown,2,2020-03-19 17:49:56.289 +0100,606329396.7618334,0,-5.88,101.8825
2020-03-19 17:49:58.111 +0100,1584636596.999755,52.52523636200229,13.4434893893612,53.31132,0,217.9758156821553,10.05514664436519,14.25885196134003,-9999,36037.00710904167,0.9422607421875,0.523651123046875,-0.447113037109375,36036.98701404167,1.745890284597591,0.9972485332968974,-0.5779207367254534,-2.395775079727173,1.810001969337463,0.8967462778091431,0.006660759449005127,-0.1373562812805176,-0.0008050799369812012,XArbitraryZVertical,-0.5120408820864765,0.1027942527349097,0.5574669501035198,0.6453511307132834,0.7035685181617737,0.5462835431098938,-0.4544949531555176,36035.18341179167,unknown,2,2020-03-19 17:49:56.289 +0100,606329396.7618334,0,-5.88,101.8825
2020-03-19 17:49:58.131 +0100,1584636596.999755,52.52523636200229,13.4434893893612,53.31132,0,217.9758156821553,10.05514664436519,14.25885196134003,-9999,36037.02720404167,0.9717254638671875,0.581939697265625,-0.574554443359375,36037.00710904167,1.809969310176968,1.063566354250133,-0.5874302681977154,-2.403333902359009,1.300745248794556,1.262974977493286,0.1691097617149353,0.03576421737670898,0.06311976909637451,XArbitraryZVertical,-0.5358254951975608,0.1035687011372909,0.5581081185120996,0.6250439419777514,0.7275670766830444,0.554223895072937,-0.4043291211128235,36035.18341179167,unknown,2,2020-03-19 17:49:56.289 +0100,606329396.7618334,0,-5.88,101.8825
2020-03-19 17:49:58.151 +0100,1584636596.999755,52.52523636200229,13.4434893893612,53.31132,0,217.9758156821553,10.05514664436519,14.25885196134003,-9999,36037.04729904167,1.137619018554688,0.999298095703125,-0.684600830078125,36037.02720404167,1.86838823158909,1.120468384992235,-0.5862922122075511,-1.870185136795044,1.170022249221802,0.7492807507514954,0.192364513874054,-0.0399940013885498,-0.3134459257125854,XArbitraryZVertical,-0.5545888558129081,0.105572501325154,0.5608533772525101,0.6055816256644754,0.7499516010284424,0.5532762408256531,-0.3625712990760803,36035.18341179167,unknown,2,2020-03-19 17:49:56.289 +0100,606329396.7618334,0,-5.88,101.8825
2020-03-19 17:49:58.172 +0100,1584636596.999755,52.52523636200229,13.4434893893612,53.31132,0,217.9758156821553,10.05514664436519,14.25885196134003,-9999,36037.06739404167,0.9845428466796875,1.036087036132812,-0.9026031494140625,36037.06739404167,1.921039597882688,1.173773456373414,-0.5908930224642277,1.089098334312439,0.245102733373642,0.2072142511606216,0.2978211045265198,0.5653104186058044,-0.5588541626930237,XArbitraryZVertical,-0.5730914993235937,0.1049307602198827,0.5603924092892556,0.588656133892932,0.7658485174179077,0.5571028590202332,-0.3211113512516022,36035.18341179167,unknown,2,2020-03-19 17:49:56.289 +0100,606329396.7618334,0,-5.88,101.8825
2020-03-19 17:49:58.192 +0100,1584636596.999755,52.52523636200229,13.4434893893612,53.31132,0,217.9758156821553,10.05514664436519,14.25885196134003,-9999,36037.08748904167,1.369873046875,1.093795776367188,-0.675628662109375,36037.06739404167,1.921039597882688,1.173773456373414,-0.5908930224642277,1.089098334312439,0.245102733373642,0.2072142511606216,0.2978211045265198,0.5653104186058044,-0.5588541626930237,XArbitraryZVertical,-0.5730914993235937,0.1049307602198827,0.5603924092892556,0.588656133892932,0.7658485174179077,0.5571028590202332,-0.3211113512516022,36035.18341179167,unknown,2,2020-03-19 17:49:56.289 +0100,606329396.7618334,0,-5.88,101.8825
2020-03-19 17:49:58.212 +0100,1584636597.999747,52.52523834557083,13.44348420732713,53.24245,0,217.9758114247929,10.06048238655346,14.25508777401762,-9999,36037.10758404167,1.228515625,0.60137939453125,-0.518524169921875,36037.08748904167,1.887687975069533,1.157198211311274,-0.5875769743399475,0.8223322629928589,-0.07211386412382126,-0.4681126773357391,0.4123247861862183,0.5643135905265808,-0.4769217371940613,XArbitraryZVertical,-0.5661141142795757,0.1107434514684813,0.5560494953245535,0.5983808428314059,0.7621084451675415,0.5543460249900818,-0.3345013856887817,36035.18341179167,unknown,2,2020-03-19 17:49:56.289 +0100,606329396.7618334,0,-5.88,101.8825
2020-03-19 17:49:58.232 +0100,1584636597.999747,52.52523834557083,13.44348420732713,53.24245,0,217.9758114247929,10.06048238655346,14.25508777401762,-9999,36037.12767904167,0.855804443359375,0.275665283203125,-0.586883544921875,36037.10758404167,1.880596674411942,1.151293464636109,-0.5888186097390369,-0.1709065139293671,-0.06865028291940689,0.005547070875763893,0.5728861689567566,0.1755853891372681,-0.1770080327987671,XArbitraryZVertical,-0.5642947325476096,0.110516737618455,0.5552795578429957,0.60085120500792,0.7594909071922302,0.5553789734840393,-0.3387150168418884,36035.18341179167,unknown,2,2020-03-19 17:49:56.289 +0100,606329396.7618334,0,-5.88,101.8825
2020-03-19 17:49:58.252 +0100,1584636597.999747,52.52523834557083,13.44348420732713,53.24245,0,217.9758114247929,10.06048238655346,14.25508777401762,-9999,36037.14777404167,0.80224609375,0.2422332763671875,-0.5232696533203125,36037.12767904167,1.887269658550955,1.152879082067194,-0.5949883948766719,-0.673495888710022,-0.1647554636001587,-0.3200087547302246,0.1610217094421387,-0.2563077211380005,-0.2368302345275879,XArbitraryZVertical,-0.5661567655597083,0.1068172574068355,0.5552787185241784,0.59976837214196,0.7568808197975159,0.5604991316795349,-0.3361131846904755,36035.18341179167,unknown,2,2020-03-19 17:49:56.289 +0100,606329396.7618334,0,-5.88,101.8825
2020-03-19 17:49:58.272 +0100,1584636597.999747,52.52523834557083,13.44348420732713,53.24245,0,217.9758114247929,10.06048238655346,14.25508777401762,-9999,36037.16786904167,0.8053741455078125,0.513397216796875,-0.701263427734375,36037.14777404167,1.901119662371338,1.156755702007828,-0.6049824964090312,-0.4066231846809387,-0.2281345427036285,-0.2318830639123917,0.062427818775177,-0.3674613237380981,-0.1934376358985901,XArbitraryZVertical,-0.5696326491018269,0.1003269134451828,0.5557959040101415,0.5971131180891163,0.7530120015144348,0.5687476992607117,-0.3309063017368317,36035.18341179167,unknown,2,2020-03-19 17:49:56.289 +0100,606329396.7618334,0,-5.88,101.8825
2020-03-19 17:49:58.292 +0100,1584636597.999747,52.52523834557083,13.44348420732713,53.24245,0,217.9758114247929,10.06048238655346,14.25508777401762,-9999,36037.18796404167,0.823760986328125,0.528900146484375,-0.7459869384765625,36037.16786904167,1.888127949532334,1.144134134930406,-0.6097136442797417,1.097737550735474,-0.3160005807876587,-0.6365421414375305,0.0310208797454834,-0.1287316679954529,-0.3156470656394958,XArbitraryZVertical,-0.566277635720514,0.09847018698439301,0.5542866090223235,0.6019963484139568,0.7463176250457764,0.5726327300071716,-0.3392665088176727,36035.18341179167,unknown,2,2020-03-19 17:49:56.289 +0100,606329396.7618334,0,-5.88,101.8825
2020-03-19 17:49:58.312 +0100,1584636597.999747,52.52523834557083,13.44348420732713,53.24245,0,217.9758114247929,10.06048238655346,14.25508777401762,-9999,36037.20805904167,0.638885498046875,0.3265228271484375,-0.6339569091796875,36037.18796404167,1.850620169720055,1.116676562271605,-0.6087700378990382,1.548920273780823,-0.2939737141132355,-0.4976611137390137,0.1019902229309082,-0.009198665618896484,-0.3920336961746216,XArbitraryZVertical,-0.5566554048055574,0.1010062363262375,0.5508355152775062,0.6136063079656875,0.7372072339057922,0.5718588829040527,-0.3598650097846985,36035.18341179167,unknown,2,2020-03-19 17:49:56.289 +0100,606329396.7618334,0,-5.88,101.8825
2020-03-19 17:49:58.332 +0100,1584636597.999747,52.52523834557083,13.44348420732713,53.24245,0,217.9758114247929,10.06048238655346,14.25508777401762,-9999,36037.22815404167,0.727081298828125,0.484649658203125,-0.7824859619140625,36037.20805904167,1.805617950211744,1.087312747101705,-0.5981683645266549,2.308833599090576,-0.151139885187149,-0.4417159855365753,-0.04455304145812988,-0.2602658867835999,-0.3207359910011292,XArbitraryZVertical,-0.5442565704851762,0.1082098405956413,0.547649665543365,0.6262230132640996,0.7316508293151855,0.5631298422813416,-0.3841508328914642,36035.18341179167,unknown,2,2020-03-19 17:49:56.289 +0100,606329396.7618334,0,-5.88,101.8825
2020-03-19 17:49:58.353 +0100,1584636597.999747,52.52523834557083,13.44348420732713,53.24245,0,217.9758114247929,10.06048238655346,14.25508777401762,-9999,36037.24824904167,0.69561767578125,0.5358428955078125,-0.7728729248046875,36037.22815404167,1.747784874369261,1.051041619517517,-0.5836949054113804,2.5830397605896,-0.2588233053684235,-0.4058623909950256,-0.03068548440933228,-0.02218794822692871,-0.2876901030540466,XArbitraryZVertical,-0.5281792326633303,0.1175123921272937,0.542664021878165,0.6424432199626072,0.7242377996444702,0.5511108636856079,-0.4144350588321686,36035.18341179167,unknown,2,2020-03-19 17:49:56.289 +0100,606329396.7618334,0,-5.88,101.8825
2020-03-19 17:49:58.378 +0100,1584636597.999747,52.52523834557083,13.44348420732713,53.24245,0,217.9758114247929,10.06048238655346,14.25508777401762,-9999,36037.26834404167,0.9956512451171875,0.479339599609375,-0.3173980712890625,36037.26834404167,1.631130075592054,0.9829364302955185,-0.5412705715530828,1.347936511039734,-0.08100463449954987,-0.10191660374403,0.1421760320663452,0.04192590713500977,0.1752650737762451,XArbitraryZVertical,-0.4926676582058265,0.1400901230619915,0.5320879244249108,0.6741927049334674,0.7131804823875427,0.515225350856781,-0.4753066599369049,36035.18341179167,unknown,2,2020-03-19 17:49:56.289 +0100,606329396.7618334,0,-5.88,101.8825
2020-03-19 17:49:58.393 +0100,1584636597.999747,52.52523834557083,13.44348420732713,53.24245,0,217.9758114247929,10.06048238655346,14.25508777401762,-9999,36037.28843904167,0.6870574951171875,0.9375457763671875,-0.79412841796875,36037.26834404167,1.631130075592054,0.9829364302955185,-0.5412705715530828,1.347936511039734,-0.08100463449954987,-0.10191660374403,0.1421760320663452,0.04192590713500977,0.1752650737762451,XArbitraryZVertical,-0.4926676582058265,0.1400901230619915,0.5320879244249108,0.6741927049334674,0.7131804823875427,0.515225350856781,-0.4753066599369049,36035.18341179167,unknown,2,2020-03-19 17:49:56.289 +0100,606329396.7618334,0,-5.88,101.8825
2020-03-19 17:49:58.413 +0100,1584636597.999747,52.52523834557083,13.44348420732713,53.24245,0,217.9758114247929,10.06048238655346,14.25508777401762,-9999,36037.30853404167,0.7835693359375,0.646636962890625,-0.574005126953125,36037.28843904167,1.603409461246172,0.9658767766133888,-0.5322979836889166,1.55347728729248,-0.1118478178977966,-0.6876324415206909,0.04033619165420532,0.1961817145347595,-0.3719491958618164,XArbitraryZVertical,-0.4839350790265636,0.1442235022561882,0.529013030626902,0.6820201447299316,0.708742618560791,0.5075147151947021,-0.4900128543376923,36035.18341179167,unknown,2,2020-03-19 17:49:56.289 +0100,606329396.7618334,0,-5.88,101.8825
2020-03-19 17:49:58.432 +0100,1584636597.999747,52.52523834557083,13.44348420732713,53.24245,0,217.9758114247929,10.06048238655346,14.25508777401762,-9999,36037.32862904167,0.7049102783203125,0.53192138671875,-0.572418212890625,36037.30853404167,1.564193817543907,0.9435555083749807,-0.5200676640001912,1.913507342338562,-0.1387479901313782,-0.2556498348712921,0.1470164656639099,0.3011025786399841,-0.03018367290496826,XArbitraryZVertical,-0.4720086704848147,0.1501682529435956,0.5237776770577126,0.6930470297723489,0.7026025056838989,0.4969388544559479,-0.5093145966529846,36035.18341179167,unknown,2,2020-03-19 17:49:56.289 +0100,606329396.7618334,0,-5.88,101.8825
2020-03-19 17:49:58.454 +0100,1584636597.999747,52.52523834557083,13.44348420732713,53.24245,0,217.9758114247929,10.06048238655346,14.25508777401762,-9999,36037.34872404167,0.7106475830078125,0.490142822265625,-0.6194000244140625,36037.32862904167,1.525838540865088,0.9210052213734714,-0.5017870745661686,1.680827260017395,-0.2587202191352844,-0.2413715720176697,-0.02960556745529175,0.04908853769302368,-0.04751485586166382,XArbitraryZVertical,-0.4582405718525001,0.1574726908983992,0.519917708791115,0.7034937526179611,0.6980568766593933,0.4809930920600891,-0.5304358601570129,36035.18341179167,unknown,2,2020-03-19 17:49:56.289 +0100,606329396.7618334,0,-5.88,101.8825
2020-03-19 17:49:58.473 +0100,1584636597.999747,52.52523834557083,13.44348420732713,53.24245,0,217.9758114247929,10.06048238655346,14.25508777401762,-9999,36037.36881904167,0.6385498046875,0.455108642578125,-0.6275482177734375,36037.34872404167,1.495933932580395,0.9010666848983933,-0.4867088915126104,1.384651780128479,-0.308132529258728,-0.20907823741436,0.04993325471878052,0.0368340015411377,-0.06159645318984985,XArbitraryZVertical,-0.4464566332909889,0.1622730061090476,0.5173227183603578,0.7118435133069793,0.6929503083229065,0.4677194952964783,-0.5486878752708435,36035.18341179167,unknown,2,2020-03-19 17:49:56.289 +0100,606329396.7618334,0,-5.88,101.8825
2020-03-19 17:49:58.502 +0100,1584636597.999747,52.52523834557083,13.44348420732713,53.24245,0,217.9758114247929,10.06048238655346,14.25508777401762,-9999,36037.38891404167,0.52734375,0.5192413330078125,-0.5636444091796875,36037.36881904167,1.468142228025378,0.8821625785136552,-0.4722628908366838,1.358178615570068,-0.2892923355102539,-0.1968988180160522,-0.0502007007598877,-0.0008254349231719971,-0.0663641095161438,XArbitraryZVertical,-0.4351228580129834,0.1664519785136037,0.5148198542667768,0.7196682510856739,0.6876001954078674,0.4549026489257812,-0.5659236907958984,36035.18341179167,unknown,2,2020-03-19 17:49:56.289 +0100,606329396.7618334,0,-5.88,101.8825
2020-03-19 17:49:58.526 +0100,1584636597.999747,52.52523834557083,13.44348420732713,53.24245,0,217.9758114247929,10.06048238655346,14.25508777401762,-9999,36037.40900904167,0.55828857421875,0.4456939697265625,-0.8011627197265625,36037.40900904167,1.414773651339886,0.8473117529421229,-0.4385827108450833,1.364858269691467,-0.3500140011310577,0.001973440870642662,-0.148283839225769,-0.006621271371841431,-0.1842495203018188,XArbitraryZVertical,-0.4114777401816758,0.1761067260599856,0.5102395136980762,0.7343896212245167,0.6785663366317749,0.4246567487716675,-0.5993449687957764,36035.18341179167,unknown,2,2020-03-19 17:49:56.289 +0100,606329396.7618334,0,-5.88,101.8825
2020-03-19 17:49:58.533 +0100,1584636597.999747,52.52523834557083,13.44348420732713,53.24245,0,217.9758114247929,10.06048238655346,14.25508777401762,-9999,36037.42910404167,0.6960906982421875,0.3964080810546875,-0.8708648681640625,36037.40900904167,1.414773651339886,0.8473117529421229,-0.4385827108450833,1.364858269691467,-0.3500140011310577,0.001973440870642662,-0.148283839225769,-0.006621271371841431,-0.1842495203018188,XArbitraryZVertical,-0.4114777401816758,0.1761067260599856,0.5102395136980762,0.7343896212245167,0.6785663366317749,0.4246567487716675,-0.5993449687957764,36035.18341179167,unknown,2,2020-03-19 17:49:56.289 +0100,606329396.7618334,0,-5.88,101.8825
2020-03-19 17:49:58.555 +0100,1584636597.999747,52.52523834557083,13.44348420732713,53.24245,0,217.9758114247929,10.06048238655346,14.25508777401762,-9999,36037.44919904167,0.6160736083984375,0.343475341796875,-0.643951416015625,36037.42910404167,1.392372754674678,0.8294935828814376,-0.4182717411801609,1.565285205841064,-0.4247896075248718,0.04234429821372032,0.03262460231781006,-0.03335848450660706,-0.2863691449165344,XArbitraryZVertical,-0.3985804239275906,0.1805957283415968,0.5099455428353631,0.7405905168319158,0.6740036010742188,0.4061817824840546,-0.6170376539230347,36035.18341179167,unknown,2,2020-03-19 17:49:56.289 +0100,606329396.7618334,0,-5.88,101.8825
2020-03-19 17:49:58.574 +0100,1584636597.999747,52.52523834557083,13.44348420732713,53.24245,0,217.9758114247929,10.06048238655346,14.25508777401762,-9999,36037.46929404167,0.6515045166015625,0.4276885986328125,-0.6756439208984375,36037.44919904167,1.366192789060959,0.8120040988382533,-0.3963128613089825,1.559568762779236,-0.2985146641731262,-0.01910930871963501,-0.02019697427749634,0.006929755210876465,-0.0294489860534668,XArbitraryZVertical,-0.3846846803360519,0.1861718294991692,0.5082345402972902,0.7477000788936322,0.6694214940071106,0.3860196173191071,-0.6347154974937439,36035.18341179167,unknown,2,2020-03-19 17:49:56.289 +0100,606329396.7618334,0,-5.88,101.8825
2020-03-19 17:49:58.594 +0100,1584636597.999747,52.52523834557083,13.44348420732713,53.24245,0,217.9758114247929,10.06048238655346,14.25508777401762,-9999,36037.48938904167,0.6626739501953125,0.512237548828125,-0.578765869140625,36037.46929404167,1.342696725208149,0.7971891911798556,-0.3759556677593613,1.483806490898132,-0.3054494857788086,-0.02577243559062481,-0.04940831661224365,0.02705401182174683,-0.009194254875183105,XArbitraryZVertical,-0.3720242687151821,0.1914108098095726,0.5063903961888867,0.7540083492300519,0.6654297113418579,0.3671616315841675,-0.6499196887016296,36035.18341179167,unknown,2,2020-03-19 17:49:56.289 +0100,606329396.7618334,0,-5.88,101.8825
2020-03-19 17:49:58.613 +0100,1584636597.999747,52.52523834557083,13.44348420732713,53.24245,0,217.9758114247929,10.06048238655346,14.25508777401762,-9999,36037.50948404167,0.62176513671875,0.567291259765625,-0.4316864013671875,36037.48938904167,1.319996217140684,0.7834746308660191,-0.3563147929025061,1.472069263458252,-0.2604649662971497,-0.08426054567098618,0.007857918739318848,0.1630225777626038,0.07675117254257202,XArbitraryZVertical,-0.3597735140731622,0.1964180336428027,0.5042496304982798,0.7600758474077419,0.6614165306091309,0.3488228619098663,-0.6639659404754639,36035.18341179167,unknown,2,2020-03-19 17:49:56.289 +0100,606329396.7618334,0,-5.88,101.8825
2020-03-19 17:49:58.633 +0100,1584636597.999747,52.52523834557083,13.44348420732713,53.24245,0,217.9758114247929,10.06048238655346,14.25508777401762,-9999,36037.52957804167,0.5859222412109375,0.4535064697265625,-0.374603271484375,36037.50948404167,1.29673141986769,0.7706127856130617,-0.3378053908978635,1.308119058609009,-0.2445232421159744,-0.09493376314640045,-0.03824138641357422,0.2711108922958374,0.2101422548294067,XArbitraryZVertical,-0.3479008541920184,0.2012401044054269,0.5012878052008407,0.7662754012106034,0.6572076082229614,0.3314173221588135,-0.6769348382949829,36035.18341179167,unknown,2,2020-03-19 17:49:56.289 +0100,606329396.7618334,0,-5.88,101.8825
2020-03-19 17:49:58.656 +0100,1584636597.999747,52.52523834557083,13.44348420732713,53.24245,0,217.9758114247929,10.06048238655346,14.25508777401762,-9999,36037.54967304167,0.6850738525390625,0.433563232421875,-0.4659881591796875,36037.52957804167,1.276973719754169,0.7604692153694919,-0.3200258610828118,1.159403562545776,-0.2036543935537338,0.005895878188312054,-0.09206223487854004,0.1695286929607391,0.3503748178482056,XArbitraryZVertical,-0.3371703082203124,0.2060402370965768,0.4988605457871788,0.7713635903714181,0.654265820980072,0.314591109752655,-0.6877272129058838,36035.18341179167,unknown,2,2020-03-19 17:49:56.289 +0100,606329396.7618334,0,-5.88,101.8825
2020-03-19 17:49:58.674 +0100,1584636597.999747,52.52523834557083,13.44348420732713,53.24245,0,217.9758114247929,10.06048238655346,14.25508777401762,-9999,36037.56976866667,0.7075042724609375,0.3306121826171875,-0.5906982421875,36037.54967304167,1.262401960153138,0.7519848612198365,-0.3054134863606426,0.861896812915802,-0.1872732043266296,-0.04692359641194344,0.01067030429840088,0.1158813834190369,0.2550275325775146,XArbitraryZVertical,-0.3283919192173549,0.2095005160945193,0.4974107260591615,0.7751456873335351,0.6514781713485718,0.3006875514984131,-0.6965365409851074,36035.18341179167,unknown,2,2020-03-19 17:49:56.289 +0100,606329396.7618334,0,-5.88,101.8825
2020-03-19 17:49:58.694 +0100,1584636597.999747,52.52523834557083,13.44348420732713,53.24245,0,217.9758114247929,10.06048238655346,14.25508777401762,-9999,36037.58986366667,0.7083892822265625,0.2255096435546875,-0.68658447265625,36037.56976866667,1.24861122903147,0.7442425672020211,-0.2928999601104494,0.9484967589378357,-0.1489928364753723,-0.107110932469368,0.07205581665039062,0.02909916639328003,0.1199561953544617,XArbitraryZVertical,-0.3205541612700197,0.2123884051729078,0.495648862716148,0.7787608009950542,0.6485641598701477,0.2887298762798309,-0.7042723894119263,36035.18341179167,unknown,2,2020-03-19 17:49:56.289 +0100,606329396.7618334,0,-5.88,101.8825
2020-03-19 17:49:58.714 +0100,1584636597.999747,52.52523834557083,13.44348420732713,53.24245,0,217.9758114247929,10.06048238655346,14.25508777401762,-9999,36037.60995866667,0.5442352294921875,0.3857269287109375,-0.5528564453125,36037.58986366667,1.232977853087589,0.7367333964482581,-0.2795827323636805,1.070367813110352,-0.1776872873306274,-0.03659665584564209,0.0614391565322876,0.006733357906341553,0.07491803169250488,XArbitraryZVertical,-0.3122250841449465,0.2157815601148098,0.4931888743641759,0.782763399692766,0.6457836627960205,0.2759546041488647,-0.7119076251983643,36035.18341179167,unknown,2,2020-03-19 17:49:56.289 +0100,606329396.7618334,0,-5.88,101.8825
2020-03-19 17:49:58.734 +0100,1584636597.999747,52.52523834557083,13.44348420732713,53.24245,0,217.9758114247929,10.06048238655346,14.25508777401762,-9999,36037.63005366667,0.6812744140625,0.0779571533203125,-0.778228759765625,36037.60995866667,1.215581420469126,0.7312421858306106,-0.2660911753288399,1.168240785598755,0.1469467878341675,-0.3059282302856445,-0.08390498161315918,0.04954123497009277,0.1975991725921631,XArbitraryZVertical,-0.3040635615333145,0.220160900351839,0.4896626288541416,0.7869593535076941,0.6442924737930298,0.2629621922969818,-0.7181490659713745,36035.18341179167,unknown,2,2020-03-19 17:49:56.289 +0100,606329396.7618334,0,-5.88,101.8825
2020-03-19 17:49:58.757 +0100,1584636597.999747,52.52523834557083,13.44348420732713,53.24245,0,217.9758114247929,10.06048238655346,14.25508777401762,-9999,36037.65014866667,0.6970367431640625,0.2953643798828125,-0.68927001953125,36037.63005366667,1.200328233417171,0.7298334622571224,-0.2522828334478922,0.791377067565918,0.183025911450386,0.03719930350780487,0.01980441808700562,-0.07843883335590363,-0.07969444990158081,XArbitraryZVertical,-0.296936955886361,0.2257912496587086,0.4863464837357833,0.7901352959339977,0.6456397771835327,0.2496151775121689,-0.7216935157775879,36035.18341179167,unknown,2,2020-03-19 17:49:56.289 +0100,606329396.7618334,0,-5.88,101.8825
2020-03-19 17:49:58.775 +0100,1584636597.999747,52.52523834557083,13.44348420732713,53.24245,0,217.9758114247929,10.06048238655346,14.25508777401762,-9999,36037.67024366667,0.792022705078125,0.2377166748046875,-0.655548095703125,36037.65014866667,1.191900003064998,0.7333851835660145,-0.245988301780195,0.4930946826934814,0.3106222152709961,-0.1074097380042076,-0.0006850361824035645,0.06865251064300537,0.06926167011260986,XArbitraryZVertical,-0.2945060640601729,0.2301993639628989,0.4836175989151228,0.791447068248358,0.6492378711700439,0.2435149997472763,-0.7205488681793213,36035.18341179167,unknown,2,2020-03-19 17:49:56.289 +0100,606329396.7618334,0,-5.88,101.8825
2020-03-19 17:49:58.794 +0100,1584636597.999747,52.52523834557083,13.44348420732713,53.24245,0,217.9758114247929,10.06048238655346,14.25508777401762,-9999,36037.69033866667,0.6619873046875,0.2204742431640625,-0.579925537109375,36037.67024366667,1.182631595253507,0.7376441607470653,-0.2381105904564448,0.6817969679832458,0.3171001374721527,-0.009671563282608986,0.1322656869888306,0.07427108287811279,0.02446097135543823,XArbitraryZVertical,-0.2915252165872936,0.2354267117162754,0.4807362889573569,0.7927672275330745,0.6535706520080566,0.2358669489622116,-0.7191746234893799,36035.18341179167,unknown,2,2020-03-19 17:49:56.289 +0100,606329396.7618334,0,-5.88,101.8825
2020-03-19 17:49:58.814 +0100,1584636597.999747,52.52523834557083,13.44348420732713,53.24245,0,217.9758114247929,10.06048238655346,14.25508777401762,-9999,36037.71043366667,0.689361572265625,0.20025634765625,-0.8448028564453125,36037.69033866667,1.175556614349842,0.7414213905078555,-0.2301633070828376,0.3462335765361786,0.202977254986763,0.02717892825603485,0.02026116847991943,-0.06529173254966736,0.1511698365211487,XArbitraryZVertical,-0.2886248717962813,0.2401361418668611,0.4788086745919671,0.7935820982438637,0.6575276851654053,0.2281365245580673,-0.7180606126785278,36035.18341179167,unknown,2,2020-03-19 17:49:56.289 +0100,606329396.7618334,0,-5.88,101.8825
2020-03-19 17:49:58.834 +0100,1584636597.999747,52.52523834557083,13.44348420732713,53.24245,0,217.9758114247929,10.06048238655346,14.25508777401762,-9999,36037.73052866667,0.6104278564453125,0.2045745849609375,-0.8173065185546875,36037.71043366667,1.172216731203066,0.7434142330648577,-0.2226460864350338,0.4491992294788361,0.08338191360235214,0.2294759601354599,0.03899085521697998,0.006685048341751099,-0.07439404726028442,XArbitraryZVertical,-0.2858855840974808,0.2434622854590405,0.4785441749887467,0.7937197735551562,0.6600994467735291,0.2208111584186554,-0.7179911136627197,36035.18341179167,unknown,2,2020-03-19 17:49:56.289 +0100,606329396.7618334,0,-5.88,101.8825
2020-03-19 17:49:58.856 +0100,1584636597.999747,52.52523834557083,13.44348420732713,53.24245,0,217.9758114247929,10.06048238655346,14.25508777401762,-9999,36037.75062366667,0.6251983642578125,0.22528076171875,-0.7672882080078125,36037.73052866667,1.169841585898218,0.7440582547340892,-0.2130787104139294,0.3941799402236938,0.01941518485546112,0.2640754878520966,-0.04310274124145508,-0.01331652700901031,-0.1186928749084473,XArbitraryZVertical,-0.2821608762841251,0.2466609584561828,0.4792179732245946,0.7936584195895062,0.6619622111320496,0.211469978094101,-0.7190872430801392,36035.18341179167,unknown,2,2020-03-19 17:49:56.289 +0100,606329396.7618334,0,-5.88,101.8825
2020-03-19 17:49:58.876 +0100,1584636597.999747,52.52523834557083,13.44348420732713,53.24245,0,217.9758114247929,10.06048238655346,14.25508777401762,-9999,36037.77071866667,0.664794921875,0.2450408935546875,-0.76214599609375,36037.75062366667,1.168838188777744,0.7434895993415283,-0.2032240399041683,0.3732592463493347,-0.05350154638290405,0.3178405165672302,-0.04224115610122681,0.01584121584892273,-0.06080245971679688,XArbitraryZVertical,-0.2781953765357988,0.2492509230752735,0.4806477181272243,0.7933845754042592,0.6629316210746765,0.2018280625343323,-0.7209626436233521,36035.18341179167,unknown,2,2020-03-19 17:49:56.289 +0100,606329396.7618334,0,-5.88,101.8825
2020-03-19 17:49:58.895 +0100,1584636597.999747,52.52523834557083,13.44348420732713,53.24245,0,217.9758114247929,10.06048238655346,14.25508777401762,-9999,36037.79081366667,0.6567535400390625,0.1743316650390625,-0.835052490234375,36037.77071866667,1.169546774948991,0.7414156389775141,-0.1938952168990693,0.3048681318759918,-0.1704858392477036,0.3501630127429962,-0.001475334167480469,0.04955317080020905,-0.03231531381607056,XArbitraryZVertical,-0.2742699518869817,0.2508574015805137,0.4828570441578713,0.7929032982252099,0.6626777052879333,0.1926825791597366,-0.7236931324005127,36035.18341179167,unknown,2,2020-03-19 17:49:56.289 +0100,606329396.7618334,0,-5.88,101.8825
2020-03-19 17:49:58.915 +0100,1584636597.999747,52.52523834557083,13.44348420732713,53.24245,0,217.9758114247929,10.06048238655346,14.25508777401762,-9999,36037.81090866667,0.62188720703125,0.16900634765625,-0.837310791015625,36037.79081366667,1.170877585851202,0.7379055912536264,-0.1841965885294591,0.3572192788124084,-0.2097673565149307,0.4164012968540192,0.0006210803985595703,0.0381132960319519,-0.07666468620300293,XArbitraryZVertical,-0.2699263025615066,0.2519091170982647,0.4855524280658727,0.792414327256894,0.6613595485687256,0.1831567734479904,-0.7273631691932678,36035.18341179167,unknown,2,2020-03-19 17:49:56.289 +0100,606329396.7618334,0,-5.88,101.8825
2020-03-19 17:49:58.935 +0100,1584636597.999747,52.52523834557083,13.44348420732713,53.24245,0,217.9758114247929,10.06048238655346,14.25508777401762,-9999,36037.83100366667,0.66229248046875,0.2318115234375,-0.7754058837890625,36037.81090866667,1.173709733358409,0.7339554294472422,-0.1742503891685956,0.1347246319055557,-0.2334927469491959,0.4723499715328217,-0.0522078275680542,0.004198849201202393,-0.1166104078292847,XArbitraryZVertical,-0.2655596599056748,0.252655530200426,0.4889167976903573,0.7915829397885986,0.6596687436103821,0.1733699291944504,-0.7312865257263184,36035.18341179167,unknown,2,2020-03-19 17:49:56.289 +0100,606329396.7618334,0,-5.88,101.8825
2020-03-19 17:49:58.956 +0100,1584636597.999747,52.52523834557083,13.44348420732713,53.24245,0,217.9758114247929,10.06048238655346,14.25508777401762,-9999,36037.85109866667,0.661102294921875,0.3043365478515625,-0.665313720703125,36037.83100366667,1.180628886515272,0.7293481187598102,-0.1670037990309572,-0.06878717243671417,-0.3430292904376984,0.4918060600757599,0.001114487648010254,0.01240825653076172,-0.05838590860366821,XArbitraryZVertical,-0.2625581910359643,0.2518838084714975,0.4934950567944081,0.7899875664823895,0.6571124792098999,0.1662285774946213,-0.7352355122566223,36035.18341179167,unknown,2,2020-03-19 17:49:56.289 +0100,606329396.7618334,0,-5.88,101.8825
2020-03-19 17:49:58.975 +0100,1584636597.999747,52.52523834557083,13.44348420732713,53.24245,0,217.9758114247929,10.06048238655346,14.25508777401762,-9999,36037.87119366667,0.568115234375,0.17962646484375,-0.8555755615234375,36037.85109866667,1.190571551677985,0.724424983647627,-0.1629270143452616,-0.2038991898298264,-0.2801959812641144,0.5264729261398315,0.01667314767837524,0.167125403881073,0.08445584774017334,XArbitraryZVertical,-0.2610423879194212,0.2497506299286692,0.4987481827563987,0.7878653297525317,0.6539285778999329,0.1622071415185928,-0.7389630079269409,36035.18341179167,unknown,2,2020-03-19 17:49:56.289 +0100,606329396.7618334,0,-5.88,101.8825
2020-03-19 17:49:59.001 +0100,1584636597.999747,52.52523834557083,13.44348420732713,53.24245,0,217.9758114247929,10.06048238655346,14.25508777401762,-9999,36037.89128866667,0.5878143310546875,0.2895050048828125,-0.6672210693359375,36037.87119366667,1.199425112468529,0.7188669605623537,-0.1573228331123914,-0.05227024480700493,-0.4313697814941406,0.4763751924037933,-0.05574119091033936,0.01869663596153259,-0.09507131576538086,XArbitraryZVertical,-0.2586348164229116,0.24794910194575,0.5038869770997825,0.7859562745158707,0.6503997445106506,0.1566746681928635,-0.743258535861969,36035.18341179167,unknown,2,2020-03-19 17:49:56.289 +0100,606329396.7618334,0,-5.88,101.8825
2020-03-19 17:49:59.047 +0100,1584636597.999747,52.52523834557083,13.44348420732713,53.24245,0,217.9758114247929,10.06048238655346,14.25508777401762,-9999,36037.91138366667,0.6974945068359375,0.2534332275390625,-0.2993011474609375,36037.89128866667,1.212024488143856,0.7108807642553022,-0.1560366301330386,-0.7097952961921692,-0.5285813808441162,0.5826727747917175,-0.07754945755004883,0.1127099394798279,0.02041959762573242,XArbitraryZVertical,-0.2576737743033695,0.2435440068645554,0.5100733958556017,0.7836553351595944,0.6445741653442383,0.1554042249917984,-0.7485811114311218,36035.18341179167,unknown,2,2020-03-19 17:49:56.289 +0100,606329396.7618334,0,-5.88,101.8825
2020-03-19 17:49:59.050 +0100,1584636597.999747,52.52523834557083,13.44348420732713,53.24245,0,217.9758114247929,10.06048238655346,14.25508777401762,-9999,36037.93147866667,0.6924896240234375,0.0875091552734375,-0.52587890625,36037.91138366667,1.239062770964077,0.7053340707769739,-0.1641800347264828,-1.792545318603516,-0.4004708826541901,0.9310232996940613,0.04570972919464111,0.1095077842473984,0.3500363826751709,XArbitraryZVertical,-0.2625334604228197,0.2355801852271973,0.5200237280428806,0.777916115453514,0.6395704746246338,0.1634434461593628,-0.7511563301086426,36035.18341179167,unknown,2,2020-03-19 17:49:56.289 +0100,606329396.7618334,0,-5.88,101.8825
2020-03-19 17:49:59.060 +0100,1584636597.999747,52.52523834557083,13.44348420732713,53.24245,0,217.9758114247929,10.06048238655346,14.25508777401762,-9999,36037.95157366667,0.535858154296875,0.33319091796875,-0.60943603515625,36037.93147866667,1.289684108363673,0.7060593024623497,-0.1890647046446845,-3.053767442703247,-0.4669965803623199,1.119042873382568,0.09013164043426514,-0.07079626619815826,0.3246847987174988,XArbitraryZVertical,-0.277673199581464,0.2218443961591632,0.5354037691920802,0.766175851509115,0.6372781991958618,0.1879403442144394,-0.7473652958869934,36035.18341179167,unknown,2,2020-03-19 17:49:56.289 +0100,606329396.7618334,0,-5.88,101.8825
2020-03-19 17:49:59.076 +0100,1584636597.999747,52.52523834557083,13.44348420732713,53.24245,0,217.9758114247929,10.06048238655346,14.25508777401762,-9999,36037.97166866667,0.4511871337890625,0.4967498779296875,-0.514617919921875,36037.95157366667,1.34775282772963,0.7074417033852398,-0.228363445991752,-3.453192234039307,-0.5341854095458984,0.7124630808830261,-0.08139073848724365,0.07098235189914703,0.1244844198226929,XArbitraryZVertical,-0.2982641979683319,0.2022147921404681,0.5507362855494562,0.7528858833550964,0.6330191493034363,0.2263837605714798,-0.7402952909469604,36035.18341179167,unknown,2,2020-03-19 17:49:56.289 +0100,606329396.7618334,0,-5.88,101.8825
2020-03-19 17:49:59.099 +0100,1584636597.999747,52.52523834557083,13.44348420732713,53.24245,0,217.9758114247929,10.06048238655346,14.25508777401762,-9999,36037.99176366667,0.36114501953125,0.35906982421875,-0.6795806884765625,36037.97166866667,1.396664479078851,0.7105181593238098,-0.2649427832932917,-2.173483371734619,-0.3836034834384918,0.5159227848052979,-0.1555688381195068,0.2051597237586975,0.22101891040802,XArbitraryZVertical,-0.3165252324676399,0.1844571775938045,0.5623235792904711,0.7413362993343418,0.6294687986373901,0.2618540525436401,-0.7315746545791626,36035.18341179167,unknown,2,2020-03-19 17:49:56.289 +0100,606329396.7618334,0,-5.88,101.8825
2020-03-19 17:49:59.116 +0100,1584636597.999747,52.52523834557083,13.44348420732713,53.24245,0,217.9758114247929,10.06048238655346,14.25508777401762,-9999,36038.01185866667,0.40240478515625,0.2930450439453125,-1.102142333984375,36037.99176366667,1.420773251685058,0.7096083560346398,-0.2769426443217672,-0.3002514243125916,-0.3962337076663971,0.4684823453426361,-0.2479642629623413,0.1363010406494141,0.1546560525894165,XArbitraryZVertical,-0.3225084488357799,0.1764453941025552,0.5693025284126304,0.7353570006080885,0.6267104744911194,0.2734160721302032,-0.7297106385231018,36035.18341179167,unknown,2,2020-03-19 17:49:56.289 +0100,606329396.7618334,0,-5.88,101.8825
2020-03-19 17:49:59.136 +0100,1584636597.999747,52.52523834557083,13.44348420732713,53.24245,0,217.9758114247929,10.06048238655346,14.25508777401762,-9999,36038.03195366667,0.6282958984375,0.0277252197265625,-1.027008056640625,36038.01185866667,1.420129825624434,0.7016202051113465,-0.2639916282892986,1.191982269287109,-0.3509303331375122,0.3252322971820831,-0.2600042819976807,0.04930898547172546,-0.2443495988845825,XArbitraryZVertical,-0.315802450042498,0.1777654387059437,0.5725558690387325,0.7354237650880746,0.6230949759483337,0.2609359622001648,-0.7373365163803101,36035.18341179167,unknown,2,2020-03-19 17:49:56.289 +0100,606329396.7618334,0,-5.88,101.8825
2020-03-19 17:49:59.156 +0100,1584636597.999747,52.52523834557083,13.44348420732713,53.24245,0,217.9758114247929,10.06048238655346,14.25508777401762,-9999,36038.05204866667,0.7913970947265625,-0.3013763427734375,-0.879730224609375,36038.03195366667,1.404939797165088,0.6935234781514946,-0.2358338551694277,1.526802659034729,-0.009631766937673092,0.3744166493415833,-0.05602717399597168,-0.1042869240045547,-0.4087022542953491,XArbitraryZVertical,-0.3025035251168113,0.186105926120057,0.572911855974818,0.7386664725475548,0.6215561032295227,0.2336538434028625,-0.7477123737335205,36035.18341179167,unknown,2,2020-03-19 17:49:56.289 +0100,606329396.7618334,0,-5.88,101.8825
2020-03-19 17:49:59.176 +0100,1584636597.999747,52.52523834557083,13.44348420732713,53.24245,0,217.9758114247929,10.06048238655346,14.25508777401762,-9999,36038.07214366667,0.8549346923828125,-0.0587310791015625,-1.166412353515625,36038.05204866667,1.399232416795712,0.6961691636799497,-0.2138976223474651,0.4667254984378815,0.2930301427841187,0.4320240616798401,0.1559165120124817,-0.5468777418136597,-0.04023289680480957,XArbitraryZVertical,-0.2951578147050522,0.1948658212094531,0.5739907844812623,0.7385416400815499,0.6266687512397766,0.2122703045606613,-0.7498183250427246,36035.18341179167,unknown,2,2020-03-19 17:49:56.289 +0100,606329396.7618334,0,-5.88,101.8825
2020-03-19 17:49:59.196 +0100,1584636598.99974,52.52523572288727,13.44348920042578,53.54573,0,217.9758155440371,10.053052779415,14.26032829598938,-9999,36038.09223866667,0.7848052978515625,0.109649658203125,-1.020599365234375,36038.07214366667,1.398172487472036,0.7027395034033908,-0.206943579373248,0.2677515745162964,0.3316993117332458,0.004676748998463154,0.1880439519882202,-0.2833022475242615,-0.4036401510238647,XArbitraryZVertical,-0.2945331684594377,0.1996337899016462,0.5737584760155452,0.7376975865524372,0.6325205564498901,0.2054696530103683,-0.7467931509017944,36035.18341179167,unknown,2,2020-03-19 17:49:56.289 +0100,606329396.7618334,0,-5.88,101.8825
2020-03-19 17:49:59.216 +0100,1584636598.99974,52.52523572288727,13.44348920042578,53.54573,0,217.9758155440371,10.053052779415,14.26032829598938,-9999,36038.11233366667,0.6649017333984375,0.1681060791015625,-0.7836761474609375,36038.09223866667,1.396521894602913,0.7109339462277235,-0.2064145211809896,-0.1956561803817749,0.5475072264671326,-0.1013693958520889,0.1919152736663818,-0.1629418730735779,-0.3424054384231567,XArbitraryZVertical,-0.2965313203869419,0.2030654168975599,0.5720251490902,0.7373064478796413,0.6386896371841431,0.2049518525600433,-0.7416672110557556,36035.18341179167,unknown,2,2020-03-19 17:49:56.289 +0100,606329396.7618334,0,-5.88,101.8825
2020-03-19 17:49:59.237 +0100,1584636598.99974,52.52523572288727,13.44348920042578,53.54573,0,217.9758155440371,10.053052779415,14.26032829598938,-9999,36038.13242866667,0.497161865234375,0.4066009521484375,-0.5954132080078125,36038.13242866667,1.406539291718537,0.7365955952575937,-0.2213110779344274,-0.298078715801239,0.5409730672836304,-0.1053190976381302,-0.1193974614143372,0.1367712914943695,0.09247803688049316,XArbitraryZVertical,-0.3099915245196493,0.2062976516435429,0.5693326134170366,0.7329440309285541,0.6553858518600464,0.2195089161396027,-0.7226930856704712,36035.18341179167,unknown,2,2020-03-19 17:49:56.289 +0100,606329396.7618334,0,-5.88,101.8825
2020-03-19 17:49:59.256 +0100,1584636598.99974,52.52523572288727,13.44348920042578,53.54573,0,217.9758155440371,10.053052779415,14.26032829598938,-9999,36038.15252266667,0.48675537109375,0.5184173583984375,-0.606781005859375,36038.13242866667,1.406539291718537,0.7365955952575937,-0.2213110779344274,-0.298078715801239,0.5409730672836304,-0.1053190976381302,-0.1193974614143372,0.1367712914943695,0.09247803688049316,XArbitraryZVertical,-0.3099915245196493,0.2062976516435429,0.5693326134170366,0.7329440309285541,0.6553858518600464,0.2195089161396027,-0.7226930856704712,36035.18341179167,unknown,2,2020-03-19 17:49:56.289 +0100,606329396.7618334,0,-5.88,101.8825
2020-03-19 17:49:59.277 +0100,1584636598.99974,52.52523572288727,13.44348920042578,53.54573,0,217.9758155440371,10.053052779415,14.26032829598938,-9999,36038.17261766667,0.6659088134765625,0.4388427734375,-0.7169189453125,36038.15252266667,1.401843843977828,0.7460052982557704,-0.220401177681205,0.6368889212608337,0.4738429188728333,-0.1641525775194168,-0.1957619190216064,0.2651615142822266,0.0914456844329834,XArbitraryZVertical,-0.3118634002557687,0.2107627545833514,0.5663038806315532,0.7332259012055977,0.6622923016548157,0.2186211198568344,-0.7166405320167542,36035.18341179167,unknown,2,2020-03-19 17:49:56.289 +0100,606329396.7618334,0,-5.88,101.8825
2020-03-19 17:49:59.297 +0100,1584636598.99974,52.52523572288727,13.44348920042578,53.54573,0,217.9758155440371,10.053052779415,14.26032829598938,-9999,36038.19271266667,0.7287445068359375,0.22637939453125,-0.7193603515625,36038.17261766667,1.388158830129281,0.7510873761029949,-0.2091881235301221,0.9684454798698425,0.2681197822093964,-0.04659426212310791,-0.050956130027771,0.265496551990509,0.03491652011871338,XArbitraryZVertical,-0.307994215474637,0.2182506247966606,0.5624120966861481,0.7356621507256743,0.6675568222999573,0.2076657861471176,-0.7150124311447144,36035.18341179167,unknown,2,2020-03-19 17:49:56.289 +0100,606329396.7618334,0,-5.88,101.8825
2020-03-19 17:49:59.317 +0100,1584636598.99974,52.52523572288727,13.44348920042578,53.54573,0,217.9758155440371,10.053052779415,14.26032829598938,-9999,36038.21280766667,0.5715789794921875,0.1125335693359375,-0.809417724609375,36038.19271266667,1.376491329435864,0.7504349398580228,-0.1967480115845616,0.7029183506965637,-0.08920524269342422,0.06320124864578247,0.0756537914276123,0.08400124311447144,0.003326654434204102,XArbitraryZVertical,-0.3022334479421543,0.2236380560744662,0.5603348611823052,0.7380148061010451,0.6688002943992615,0.1954811215400696,-0.7172819375991821,36035.18341179167,unknown,2,2020-03-19 17:49:56.289 +0100,606329396.7618334,0,-5.88,101.8825
2020-03-19 17:49:59.337 +0100,1584636598.99974,52.52523572288727,13.44348920042578,53.54573,0,217.9758155440371,10.053052779415,14.26032829598938,-9999,36038.23290266667,0.5249786376953125,0.2028656005859375,-1.020263671875,36038.21280766667,1.370249263014365,0.7446034246254862,-0.1860723682828165,0.498742014169693,-0.351872056722641,0.2257707118988037,-0.05675196647644043,-0.0582282543182373,-0.04805481433868408,XArbitraryZVertical,-0.2961905841243444,0.2256978146251693,0.5607028795930464,0.7395564711652887,0.6659823656082153,0.1850004941225052,-0.7226632833480835,36035.18341179167,unknown,2,2020-03-19 17:49:56.289 +0100,606329396.7618334,0,-5.88,101.8825
2020-03-19 17:49:59.357 +0100,1584636598.99974,52.52523572288727,13.44348920042578,53.54573,0,217.9758155440371,10.053052779415,14.26032829598938,-9999,36038.25299766667,0.6321258544921875,0.2075347900390625,-0.8157958984375,36038.23290266667,1.369369103142094,0.7372762365485648,-0.1764603714300533,0.1850034445524216,-0.3566910028457642,0.3130427896976471,-0.1471474766731262,-0.01476207375526428,-0.2043415307998657,XArbitraryZVertical,-0.2906768912378284,0.226061337948457,0.5630509719288659,0.7398491985218475,0.6618344187736511,0.1755460202693939,-0.7288064360618591,36035.18341179167,unknown,2,2020-03-19 17:49:56.289 +0100,606329396.7618334,0,-5.88,101.8825
2020-03-19 17:49:59.377 +0100,1584636598.99974,52.52523572288727,13.44348920042578,53.54573,0,217.9758155440371,10.053052779415,14.26032829598938,-9999,36038.27309266667,0.740234375,0.2397918701171875,-0.669219970703125,36038.25299766667,1.373513941056794,0.7339991605570159,-0.1715182402838954,-0.02642639726400375,-0.1109627485275269,0.3495495617389679,-0.08668923377990723,0.08072733879089355,-0.04742765426635742,XArbitraryZVertical,-0.2884912606319737,0.2257642286775664,0.5658694534535197,0.7386439860430282,0.6600155830383301,0.17067851126194,-0.7316066026687622,36035.18341179167,unknown,2,2020-03-19 17:49:56.289 +0100,606329399.3320541,0,-5.87,101.8799
2020-03-19 17:49:59.397 +0100,1584636598.99974,52.52523572288727,13.44348920042578,53.54573,0,217.9758155440371,10.053052779415,14.26032829598938,-9999,36038.29318766667,0.7840728759765625,0.193695068359375,-0.657928466796875,36038.29318766667,1.386062146848155,0.7335695444522524,-0.1694932656850605,-0.1547468900680542,-0.1552608609199524,0.2362876385450363,0.1512033939361572,0.02542617917060852,0.04535043239593506,XArbitraryZVertical,-0.2890747699486983,0.2244172841769847,0.5708846084001986,0.7349580259322516,0.6599312424659729,0.1686829030513763,-0.7321453094482422,36035.18341179167,unknown,2,2020-03-19 17:49:56.289 +0100,606329399.3320541,0,-5.87,101.8799
2020-03-19 17:49:59.417 +0100,1584636598.99974,52.52523572288727,13.44348920042578,53.54573,0,217.9758155440371,10.053052779415,14.26032829598938,-9999,36038.31328266667,0.6776275634765625,0.250732421875,-0.628326416015625,36038.29318766667,1.386062146848155,0.7335695444522524,-0.1694932656850605,-0.1547468900680542,-0.1552608609199524,0.2362876385450363,0.1512033939361572,0.02542617917060852,0.04535043239593506,XArbitraryZVertical,-0.2890747699486983,0.2244172841769847,0.5708846084001986,0.7349580259322516,0.6599312424659729,0.1686829030513763,-0.7321453094482422,36035.18341179167,unknown,2,2020-03-19 17:49:56.289 +0100,606329399.3320541,0,-5.87,101.8799
2020-03-19 17:49:59.437 +0100,1584636598.99974,52.52523572288727,13.44348920042578,53.54573,0,217.9758155440371,10.053052779415,14.26032829598938,-9999,36038.33337766667,0.7657928466796875,0.244781494140625,-0.60198974609375,36038.31328266667,1.390432816390704,0.7322197832935214,-0.16744512662878,0.03087099827826023,-0.04448943585157394,0.2255073189735413,0.01802104711532593,0.08117151260375977,0.1181512475013733,XArbitraryZVertical,-0.2884661411608542,0.2239238217177039,0.5730167215627339,0.7336873958059479,0.659171998500824,0.1666637510061264,-0.7332907915115356,36035.18341179167,unknown,2,2020-03-19 17:49:56.289 +0100,606329399.3320541,0,-5.87,101.8799
2020-03-19 17:49:59.457 +0100,1584636598.99974,52.52523572288727,13.44348920042578,53.54573,0,217.9758155440371,10.053052779415,14.26032829598938,-9999,36038.35347266667,0.7682952880859375,0.1460418701171875,-0.5447235107421875,36038.33337766667,1.392501008277009,0.7335823422296358,-0.1641731387705347,-0.0002708267420530319,0.1488387137651443,0.1265116333961487,0.07713127136230469,0.0905630886554718,0.08580833673477173,XArbitraryZVertical,-0.2879518302472949,0.2251381501494948,0.5741080136113624,0.7326639942144086,0.6605321168899536,0.1634366512298584,-0.7327930927276611,36035.18341179167,unknown,2,2020-03-19 17:49:56.289 +0100,606329399.3320541,0,-5.87,101.8799
2020-03-19 17:49:59.477 +0100,1584636598.99974,52.52523572288727,13.44348920042578,53.54573,0,217.9758155440371,10.053052779415,14.26032829598938,-9999,36038.37356766667,0.770782470703125,0.15484619140625,-0.564910888671875,36038.35347266667,1.392997409706857,0.7373380415409467,-0.1613045232844247,0.2296643406152725,0.2172917723655701,0.09268826246261597,0.1245778799057007,-0.02011638879776001,0.1886622309684753,XArbitraryZVertical,-0.2880896462149696,0.2273295619492419,0.5742129511481026,0.7318504751995345,0.6635921001434326,0.1606059372425079,-0.7306512594223022,36035.18341179167,unknown,2,2020-03-19 17:49:56.289 +0100,606329399.3320541,0,-5.87,101.8799
2020-03-19 17:49:59.506 +0100,1584636598.99974,52.52523572288727,13.44348920042578,53.54573,0,217.9758155440371,10.053052779415,14.26032829598938,-9999,36038.39366266667,0.819549560546875,0.045928955078125,-0.6103515625,36038.37356766667,1.389958623025543,0.742373414273611,-0.1564806631242404,0.3310089111328125,0.3332694172859192,0.02204655110836029,0.08769166469573975,0.02325135469436646,0.1644659042358398,XArbitraryZVertical,-0.2875094378991576,0.2310991872263777,0.5731581144004876,0.7317248324485188,0.6677787899971008,0.1558428406715393,-0.7278629541397095,36035.18341179167,unknown,2,2020-03-19 17:49:56.289 +0100,606329399.3320541,0,-5.87,101.8799
2020-03-19 17:49:59.518 +0100,1584636598.99974,52.52523572288727,13.44348920042578,53.54573,0,217.9758155440371,10.053052779415,14.26032829598938,-9999,36038.41375766667,0.8078155517578125,-0.005645751953125,-0.7256622314453125,36038.39366266667,1.384225595702718,0.7486582252272164,-0.1503564132870393,0.4207629859447479,0.3684800267219543,-0.01785549148917198,0.1454053521156311,-0.08754819631576538,0.1095335483551025,XArbitraryZVertical,-0.2865058013548179,0.2361053064482976,0.5711529375152686,0.7320881650958601,0.672977089881897,0.1497905403375626,-0.7243373990058899,36035.18341179167,unknown,2,2020-03-19 17:49:56.289 +0100,606329399.3320541,0,-5.87,101.8799
2020-03-19 17:49:59.538 +0100,1584636598.99974,52.52523572288727,13.44348920042578,53.54573,0,217.9758155440371,10.053052779415,14.26032829598938,-9999,36038.43385266667,0.7200927734375,0.0710296630859375,-0.4839019775390625,36038.41375766667,1.379199662166038,0.7551525556950084,-0.1453537549677174,0.2837660014629364,0.3416495025157928,-0.008871482685208321,0.1350681781768799,-0.153172105550766,0.02054029703140259,XArbitraryZVertical,-0.2860131183569575,0.2407329722932923,0.5691987846280554,0.7322955957349165,0.6781720519065857,0.1448424607515335,-0.7204882502555847,36035.18341179167,unknown,2,2020-03-19 17:49:56.289 +0100,606329399.3320541,0,-5.87,101.8799
2020-03-19 17:49:59.558 +0100,1584636598.99974,52.52523572288727,13.44348920042578,53.54573,0,217.9758155440371,10.053052779415,14.26032829598938,-9999,36038.45394766667,0.6817779541015625,0.1080780029296875,-0.52374267578125,36038.43385266667,1.376121607692352,0.7626855390523376,-0.1426039259052438,0.1551781594753265,0.4536015689373016,0.0007511498406529427,0.06475120782852173,-0.07755953073501587,0.158289909362793,XArbitraryZVertical,-0.286820016926779,0.244769371334072,0.5674437342819811,0.7320039661951874,0.6838527321815491,0.1421210914850235,-0.7156444787979126,36035.18341179167,unknown,2,2020-03-19 17:49:56.289 +0100,606329399.3320541,0,-5.87,101.8799
2020-03-19 17:49:59.578 +0100,1584636598.99974,52.52523572288727,13.44348920042578,53.54573,0,217.9758155440371,10.053052779415,14.26032829598938,-9999,36038.47404266667,0.8660736083984375,0.025360107421875,-0.457763671875,36038.45394766667,1.372611313799346,0.7729083094325112,-0.1391225857034449,0.3238919377326965,0.6222360730171204,-0.01887541450560093,-0.02274978160858154,-0.04692158102989197,0.1822819113731384,XArbitraryZVertical,-0.2880651690823382,0.2500706914869689,0.5652650166145504,0.7314085556901613,0.6914740204811096,0.1386742293834686,-0.7089661955833435,36035.18341179167,unknown,2,2020-03-19 17:49:56.289 +0100,606329399.3320541,0,-5.87,101.8799
2020-03-19 17:49:59.598 +0100,1584636598.99974,52.52523572288727,13.44348920042578,53.54573,0,217.9758155440371,10.053052779415,14.26032829598938,-9999,36038.49413766667,0.9126434326171875,0.022735595703125,-0.5106964111328125,36038.47404266667,1.36784663768485,0.7860403051347532,-0.1349963647462843,0.2771826088428497,0.6793161630630493,0.001631291583180428,0.1170305013656616,-0.07977566123008728,0.2520302534103394,XArbitraryZVertical,-0.2897229086431832,0.2568053428180764,0.5623147490974362,0.7306939838461584,0.7011231780052185,0.1345867067575455,-0.7002233266830444,36035.18341179167,unknown,2,2020-03-19 17:49:56.289 +0100,606329399.3320541,0,-5.87,101.8799
2020-03-19 17:49:59.618 +0100,1584636598.99974,52.52523572288727,13.44348920042578,53.54573,0,217.9758155440371,10.053052779415,14.26032829598938,-9999,36038.51423266667,0.7587432861328125,0.1122589111328125,-0.60302734375,36038.49413766667,1.366074645386325,0.7974647619322736,-0.132237340255844,0.02885565161705017,0.4299087524414062,0.066496342420578,0.2095370292663574,-0.113433450460434,0.2140955328941345,XArbitraryZVertical,-0.2917375682696455,0.2620627795147056,0.5604723989971881,0.7294401431139916,0.7093399167060852,0.1318522840738297,-0.6924245953559875,36035.18341179167,unknown,2,2020-03-19 17:49:56.289 +0100,606329399.3320541,0,-5.87,101.8799
2020-03-19 17:49:59.638 +0100,1584636598.99974,52.52523572288727,13.44348920042578,53.54573,0,217.9758155440371,10.053052779415,14.26032829598938,-9999,36038.53432766667,0.669464111328125,0.079620361328125,-0.723968505859375,36038.51423266667,1.368122104280752,0.8034715349377762,-0.1324590307699651,-0.1779005527496338,0.1915460526943207,0.04296521842479706,0.09528911113739014,-0.01819422841072083,0.06914651393890381,XArbitraryZVertical,-0.2937669973520158,0.2638853175289044,0.5603015423305545,0.7280986872372351,0.7134653329849243,0.1320720314979553,-0.6881309747695923,36035.18341179167,unknown,2,2020-03-19 17:49:56.289 +0100,606329399.3320541,0,-5.87,101.8799
2020-03-19 17:49:59.658 +0100,1584636598.99974,52.52523572288727,13.44348920042578,53.54573,0,217.9758155440371,10.053052779415,14.26032829598938,-9999,36038.55442266667,0.7205963134765625,0.085113525390625,-0.6861114501953125,36038.53432766667,1.371210236777946,0.8068748487717119,-0.1336143533438918,-0.1684616059064865,0.1260773837566376,0.03641946613788605,-0.03540182113647461,-0.05647915601730347,-0.08614742755889893,XArbitraryZVertical,-0.2955298316389917,0.2643212186876587,0.5607261997203573,0.7268992197173705,0.715692400932312,0.1332171410322189,-0.6855928301811218,36035.18341179167,unknown,2,2020-03-19 17:49:56.289 +0100,606329399.3320541,0,-5.87,101.8799
2020-03-19 17:49:59.678 +0100,1584636598.99974,52.52523572288727,13.44348920042578,53.54573,0,217.9758155440371,10.053052779415,14.26032829598938,-9999,36038.574518,0.7308349609375,0.2360992431640625,-0.7170562744140625,36038.55442266667,1.375957978697443,0.8114787024039415,-0.136845927325829,-0.3841275274753571,0.1747454255819321,0.02562767267227173,-0.01733005046844482,-0.07609966397285461,-0.01339453458786011,XArbitraryZVertical,-0.2985673067907386,0.264314605517509,0.5612117195286405,0.7252838994357182,0.7185251712799072,0.1364192068576813,-0.6819906830787659,36035.18341179167,unknown,2,2020-03-19 17:49:56.289 +0100,606329399.3320541,0,-5.87,101.8799
2020-03-19 17:49:59.699 +0100,1584636598.99974,52.52523572288727,13.44348920042578,53.54573,0,217.9758155440371,10.053052779415,14.26032829598938,-9999,36038.594613,0.78594970703125,0.3069000244140625,-0.71124267578125,36038.574518,1.383160869457351,0.8145073470640036,-0.1438511603703334,-0.4852394759654999,0.03412758186459541,-0.08224470168352127,0.005688905715942383,0.06802603602409363,-0.02511155605316162,XArbitraryZVertical,-0.3027798050469349,0.2622115741952348,0.562156157030112,0.7235674993220531,0.7198746204376221,0.1433555483818054,-0.6791389584541321,36035.18341179167,unknown,2,2020-03-19 17:49:56.289 +0100,606329399.3320541,0,-5.87,101.8799
2020-03-19 17:49:59.719 +0100,1584636598.99974,52.52523572288727,13.44348920042578,53.54573,0,217.9758155440371,10.053052779415,14.26032829598938,-9999,36038.614708,0.7870941162109375,0.321044921875,-0.5289306640625,36038.594613,1.387942005857787,0.8142389369450261,-0.1530535367862579,-0.5028496980667114,-0.149710476398468,-0.2723307609558105,0.05674207210540771,0.1495622098445892,-0.03722047805786133,XArbitraryZVertical,-0.3064826417311691,0.2585913022480221,0.5623279254718959,0.7231778258750824,0.718702495098114,0.1524566859006882,-0.6783978343009949,36035.18341179167,unknown,2,2020-03-19 17:49:56.289 +0100,606329399.3320541,0,-5.87,101.8799
2020-03-19 17:49:59.739 +0100,1584636598.99974,52.52523572288727,13.44348920042578,53.54573,0,217.9758155440371,10.053052779415,14.26032829598938,-9999,36038.634803,0.7551422119140625,0.2472686767578125,-0.3391265869140625,36038.614708,1.39163342856594,0.8099157114880211,-0.167946925571658,-0.8470375537872314,-0.3180441558361053,-0.5349497199058533,0.07112526893615723,0.1762576997280121,0.06088829040527344,XArbitraryZVertical,-0.3108258539356483,0.2519098744538142,0.5617276878959009,0.7241482843454656,0.7140392065048218,0.1671585142612457,-0.6798574328422546,36035.18341179167,unknown,2,2020-03-19 17:49:56.289 +0100,606329399.3320541,0,-5.87,101.8799
2020-03-19 17:49:59.759 +0100,1584636598.99974,52.52523572288727,13.44348920042578,53.54573,0,217.9758155440371,10.053052779415,14.26032829598938,-9999,36038.654898,0.727935791015625,0.5550537109375,-0.291778564453125,36038.634803,1.397633471772892,0.8042286747155241,-0.1892768187897027,-1.012650728225708,-0.286170095205307,-0.6121900081634521,0.0753827691078186,0.02271464467048645,0.3149491548538208,XArbitraryZVertical,-0.3172198598310558,0.2423474733778674,0.5610354339509582,0.725174834062008,0.7074317336082458,0.1881486773490906,-0.6812785267829895,36035.18341179167,unknown,2,2020-03-19 17:49:56.289 +0100,606329399.3320541,0,-5.87,101.8799
2020-03-19 17:49:59.779 +0100,1584636598.99974,52.52523572288727,13.44348920042578,53.54573,0,217.9758155440371,10.053052779415,14.26032829598938,-9999,36038.674993,0.906219482421875,0.6991424560546875,-0.4349517822265625,36038.654898,1.400620774687618,0.8027101482027125,-0.2136416651669825,-0.7895612120628357,0.07941795885562897,-0.9608317017555237,0.009367823600769043,0.2680389583110809,0.375089704990387,XArbitraryZVertical,-0.3253776026985105,0.2337669629548354,0.5580115177805927,0.7267087262759948,0.7028898596763611,0.2120201736688614,-0.6789648532867432,36035.18341179167,unknown,2,2020-03-19 17:49:56.289 +0100,606329399.3320541,0,-5.87,101.8799
2020-03-19 17:49:59.799 +0100,1584636598.99974,52.52523572288727,13.44348920042578,53.54573,0,217.9758155440371,10.053052779415,14.26032829598938,-9999,36038.695088,1.0855712890625,0.3978118896484375,-0.7311553955078125,36038.674993,1.394374094661533,0.8042993412167487,-0.2402909212648111,-0.6476988196372986,0.1253603100776672,-1.330848813056946,0.1430720090866089,0.4683011472225189,0.3166358470916748,XArbitraryZVertical,-0.3340480261323376,0.22708604028209,0.5506168942609787,0.7305237293982592,0.6996484398841858,0.2379851937294006,-0.6736876964569092,36035.18341179167,unknown,2,2020-03-19 17:49:56.289 +0100,606329399.3320541,0,-5.87,101.8799
2020-03-19 17:49:59.819 +0100,1584636598.99974,52.52523572288727,13.44348920042578,53.54573,0,217.9758155440371,10.053052779415,14.26032829598938,-9999,36038.715183,0.7306671142578125,0.003021240234375,-0.8458099365234375,36038.695088,1.380358214040401,0.798711852108654,-0.2655864712510692,-0.01945557445287704,-0.3023375570774078,-1.366075396537781,0.4001921415328979,0.2280978560447693,-0.04655241966247559,XArbitraryZVertical,-0.3394421219298272,0.2195309960776722,0.5417128918416356,0.7369750706034472,0.691338062286377,0.2624752223491669,-0.6731703877449036,36035.18341179167,unknown,2,2020-03-19 17:49:56.289 +0100,606329399.3320541,0,-5.87,101.8799
2020-03-19 17:49:59.839 +0100,1584636598.99974,52.52523572288727,13.44348920042578,53.54573,0,217.9758155440371,10.053052779415,14.26032829598938,-9999,36038.735278,0.478973388671875,-0.015380859375,-0.461395263671875,36038.715183,1.355443720950819,0.7819806998251575,-0.2787577088215689,0.6261386871337891,-0.740459680557251,-1.29790723323822,0.1658161878585815,-0.2175259590148926,-0.1602274775505066,XArbitraryZVertical,-0.3367004881018248,0.2134657841063387,0.5328332821660091,0.7464273017762554,0.677483856678009,0.2751615345478058,-0.6821302771568298,36035.18341179167,unknown,2,2020-03-19 17:49:56.289 +0100,606329399.3320541,0,-5.87,101.8799
2020-03-19 17:49:59.859 +0100,1584636598.99974,52.52523572288727,13.44348920042578,53.54573,0,217.9758155440371,10.053052779415,14.26032829598938,-9999,36038.755373,0.4137420654296875,0.2741241455078125,-0.692596435546875,36038.735278,1.335329599435499,0.7610819173300002,-0.2937173395873108,-0.3962744176387787,-0.6828213334083557,-1.078476905822754,-0.1421091556549072,-0.3145791888237,0.188811719417572,XArbitraryZVertical,-0.3341818024729568,0.2044070917740738,0.5259939664266851,0.7548977072757999,0.6601681113243103,0.2895123660564423,-0.6930805444717407,36035.18341179167,unknown,2,2020-03-19 17:49:56.289 +0100,606329399.3320541,0,-5.87,101.8799
2020-03-19 17:49:59.880 +0100,1584636598.99974,52.52523572288727,13.44348920042578,53.54573,0,217.9758155440371,10.053052779415,14.26032829598938,-9999,36038.775468,0.6181640625,0.4299163818359375,-0.8418731689453125,36038.755373,1.330676710333047,0.7466164216143506,-0.3163352340588823,-0.8177300691604614,-0.6143342256546021,-0.7556920051574707,-0.2427277565002441,-0.1265575885772705,0.05850672721862793,XArbitraryZVertical,-0.337706062959268,0.1927919392579882,0.5224416504816189,0.7588415851646443,0.6454604864120483,0.3110857307910919,-0.6975717544555664,36035.18341179167,unknown,2,2020-03-19 17:49:56.289 +0100,606329399.3320541,0,-5.87,101.8799
2020-03-19 17:49:59.900 +0100,1584636598.99974,52.52523572288727,13.44348920042578,53.54573,0,217.9758155440371,10.053052779415,14.26032829598938,-9999,36038.795563,0.76251220703125,0.2943572998046875,-0.7414703369140625,36038.775468,1.32955575269715,0.7362535773710395,-0.3366169965338466,-0.4879479706287384,-0.3598463833332062,-0.699863076210022,-0.08870160579681396,0.1013791859149933,-0.1370646357536316,XArbitraryZVertical,-0.3418704337922363,0.1828194264397578,0.5199758846872514,0.7611351877116789,0.6338293552398682,0.3302958607673645,-0.6994033455848694,36035.18341179167,unknown,2,2020-03-19 17:49:56.289 +0100,606329399.3320541,0,-5.87,101.8799
2020-03-19 17:49:59.920 +0100,1584636598.99974,52.52523572288727,13.44348920042578,53.54573,0,217.9758155440371,10.053052779415,14.26032829598938,-9999,36038.815658,0.72406005859375,0.192108154296875,-0.653778076171875,36038.795563,1.324102341481672,0.7275104724767754,-0.3502135322540686,-0.2542265355587006,-0.3824049234390259,-0.5863798856735229,0.136347770690918,-0.01615959405899048,-0.05968201160430908,XArbitraryZVertical,-0.3437868151067146,0.1762414379365638,0.5168389074249109,0.7639549095251531,0.6246458292007446,0.343098372220993,-0.7014991641044617,36035.18341179167,unknown,2,2020-03-19 17:49:56.289 +0100,606329399.3320541,0,-5.87,101.8799
2020-03-19 17:49:59.940 +0100,1584636598.99974,52.52523572288727,13.44348920042578,53.54573,0,217.9758155440371,10.053052779415,14.26032829598938,-9999,36038.835753,0.733978271484375,0.2315521240234375,-0.7250213623046875,36038.815658,1.321443552708389,0.7180548467964152,-0.3637652746598184,-0.579526960849762,-0.4612874686717987,-0.4701407253742218,0.1127990484237671,-0.1428704261779785,0.0434107780456543,XArbitraryZVertical,-0.3457794519847817,0.1689162509768505,0.5149002273269844,0.7660166985226561,0.6148691773414612,0.3557956218719482,-0.7038077712059021,36035.18341179167,unknown,2,2020-03-19 17:49:56.289 +0100,606329399.3320541,0,-5.87,101.8799
2020-03-19 17:49:59.960 +0100,1584636598.99974,52.52523572288727,13.44348920042578,53.54573,0,217.9758155440371,10.053052779415,14.26032829598938,-9999,36038.855847,0.6830291748046875,0.3361053466796875,-0.684906005859375,36038.835753,1.324707348513512,0.7099337736151992,-0.3805198829037226,-0.7797354459762573,-0.4700528979301453,-0.4032182693481445,0.1131365895271301,-0.1462097764015198,0.02036887407302856,XArbitraryZVertical,-0.349711858522347,0.1600713340913907,0.5144005365853068,0.7664663970717438,0.6051625609397888,0.3714032173156738,-0.7041575908660889,36035.18341179167,unknown,2,2020-03-19 17:49:56.289 +0100,606329399.3320541,0,-5.87,101.8799
2020-03-19 17:49:59.980 +0100,1584636598.99974,52.52523572288727,13.44348920042578,53.54573,0,217.9758155440371,10.053052779415,14.26032829598938,-9999,36038.875943,0.625213623046875,0.327972412109375,-0.5734100341796875,36038.855847,1.328784335511237,0.7036716796462725,-0.3975789275475228,-0.7169952988624573,-0.2770448625087738,-0.3902347385883331,0.1049140095710754,-0.05858480930328369,0.01287859678268433,XArbitraryZVertical,-0.3542548249317039,0.1516696057855629,0.5138304842804915,0.7664711156297638,0.5965545773506165,0.3871872425079346,-0.7029997110366821,36035.18341179167,unknown,2,2020-03-19 17:49:56.289 +0100,606329399.3320541,0,-5.87,101.8799
2020-03-19 17:50:00.004 +0100,1584636598.99974,52.52523572288727,13.44348920042578,53.54573,0,217.9758155440371,10.053052779415,14.26032829598938,-9999,36038.896037,0.7476654052734375,0.267608642578125,-0.58319091796875,36038.875943,1.334114847067656,0.7024136300593901,-0.4126416767735832,-0.7948169112205505,-0.06532358378171921,-0.1703922003507614,0.036346435546875,-0.0410710871219635,0.1063417792320251,XArbitraryZVertical,-0.359452921727852,0.1455484968832522,0.513220346897175,0.7656462612412074,0.5918344259262085,0.4010306596755981,-0.6992184519767761,36035.18341179167,unknown,2,2020-03-19 17:49:56.289 +0100,606329399.3320541,0,-5.87,101.8799
2020-03-19 17:50:00.030 +0100,1584636598.99974,52.52523572288727,13.44348920042578,53.54573,0,217.9758155440371,10.053052779415,14.26032829598938,-9999,36038.91613200001,0.667755126953125,0.4058837890625,-0.73809814453125,36038.91613200001,1.358453226239706,0.7131619174277997,-0.4420289077738222,-1.019751310348511,-0.05703194811940193,-0.06726175546646118,0.126447856426239,-0.04271382093429565,-0.009765028953552246,XArbitraryZVertical,-0.3737866664718896,0.1359431073369284,0.5148166255372384,0.7594516328448859,0.5913476347923279,0.4277742505073547,-0.6836060285568237,36035.18341179167,unknown,2,2020-03-19 17:49:56.289 +0100,606329399.3320541,0,-5.87,101.8799
2020-03-19 17:50:00.040 +0100,1584636598.99974,52.52523572288727,13.44348920042578,53.54573,0,217.9758155440371,10.053052779415,14.26032829598938,-9999,36038.93622700001,0.5081939697265625,0.4064483642578125,-0.814453125,36038.91613200001,1.358453226239706,0.7131619174277997,-0.4420289077738222,-1.019751310348511,-0.05703194811940193,-0.06726175546646118,0.126447856426239,-0.04271382093429565,-0.009765028953552246,XArbitraryZVertical,-0.3737866664718896,0.1359431073369284,0.5148166255372384,0.7594516328448859,0.5913476347923279,0.4277742505073547,-0.6836060285568237,36035.18341179167,unknown,2,2020-03-19 17:49:56.289 +0100,606329399.3320541,0,-5.87,101.8799
2020-03-19 17:50:00.062 +0100,1584636598.99974,52.52523572288727,13.44348920042578,53.54573,0,217.9758155440371,10.053052779415,14.26032829598938,-9999,36038.95632200001,0.4582977294921875,0.35455322265625,-0.810028076171875,36038.93622700001,1.372442745430816,0.7183076405225748,-0.4550449035987447,-0.8373921513557434,0.01282991096377373,0.1359760761260986,-0.04674816131591797,-0.04463058710098267,-0.170936107635498,XArbitraryZVertical,-0.380338588425888,0.131112113187225,0.5165664350399272,0.7558513648253623,0.5911428332328796,0.4395026564598083,-0.6763043403625488,36035.18341179167,unknown,2,2020-03-19 17:49:56.289 +0100,606329399.3320541,0,-5.87,101.8799
2020-03-19 17:50:00.080 +0100,1584636598.99974,52.52523572288727,13.44348920042578,53.54573,0,217.9758155440371,10.053052779415,14.26032829598938,-9999,36038.97641700001,0.4361114501953125,0.2512969970703125,-0.803558349609375,36038.95632200001,1.387080134769614,0.7270042219104962,-0.462349174450951,-0.5389954447746277,0.1566541343927383,0.344176322221756,-0.1323211193084717,-0.07621943950653076,-0.1180026531219482,XArbitraryZVertical,-0.3859220108427154,0.1292419615767453,0.5189530296809681,0.7516970559034571,0.5948523879051208,0.4460518658161163,-0.6687214374542236,36035.18341179167,unknown,2,2020-03-19 17:49:56.289 +0100,606329399.3320541,0,-5.87,101.8799
2020-03-19 17:50:00.100 +0100,1584636598.99974,52.52523572288727,13.44348920042578,53.54573,0,217.9758155440371,10.053052779415,14.26032829598938,-9999,36038.99651200001,0.38067626953125,0.4040679931640625,-0.8943328857421875,36038.97641700001,1.403046659542871,0.7374557492986192,-0.4653870699173174,-0.6473274827003479,0.1723408401012421,0.5492435097694397,-0.163723886013031,-0.1923244297504425,-0.1272305250167847,XArbitraryZVertical,-0.390651458501144,0.1290755826374559,0.5222910192507189,0.7469558372516933,0.6008949875831604,0.4487687349319458,-0.6614618897438049,36035.18341179167,unknown,2,2020-03-19 17:49:56.289 +0100,606329399.3320541,0,-5.87,101.8799
2020-03-19 17:50:00.121 +0100,1584636598.99974,52.52523572288727,13.44348920042578,53.54573,0,217.9758155440371,10.053052779415,14.26032829598938,-9999,36039.01660700001,0.3618927001953125,0.531890869140625,-0.9362335205078125,36039.01660700001,1.442519668157118,0.7622087321339062,-0.4714530975991435,-0.7392659783363342,0.2116911858320236,0.568439245223999,-0.2480883002281189,0.06393599510192871,-0.3203421831130981,XArbitraryZVertical,-0.4016214446195323,0.1284416910891306,0.5307686540421195,0.7351786084197042,0.6151913404464722,0.4541813433170319,-0.6444059014320374,36035.18341179167,unknown,2,2020-03-19 17:49:56.289 +0100,606329399.3320541,0,-5.87,101.8799
2020-03-19 17:50:00.141 +0100,1584636598.99974,52.52523572288727,13.44348920042578,53.54573,0,217.9758155440371,10.053052779415,14.26032829598938,-9999,36039.036702,0.3583831787109375,0.6326751708984375,-0.908203125,36039.036702,1.461684873682079,0.7759856364615348,-0.4738925102142748,-0.6825444102287292,0.2838919460773468,0.4810402691364288,-0.2649646997451782,0.1568567156791687,-0.3151754140853882,XArbitraryZVertical,-0.4072739713796788,0.1288001008593515,0.5344909422996642,0.7292858132388863,0.6232326626777649,0.4563532769680023,-0.6350768804550171,36035.18341179167,unknown,2,2020-03-19 17:49:56.289 +0100,606329399.3320541,0,-5.87,101.8799
2020-03-19 17:50:00.161 +0100,1584636598.99974,52.52523572288727,13.44348920042578,53.54573,0,217.9758155440371,10.053052779415,14.26032829598938,-9999,36039.056797,0.3968048095703125,0.5494842529296875,-0.7487030029296875,36039.056797,1.477557100299008,0.7906651539741794,-0.4751625049745138,-0.328886866569519,0.4760257601737976,0.4005609452724457,-0.238284707069397,0.09931540489196777,-0.1459977626800537,XArbitraryZVertical,-0.4126200618690384,0.1304559010847356,0.5369820390109209,0.724138211378778,0.632075309753418,0.4574829638004303,-0.6254518628120422,36035.18341179167,unknown,2,2020-03-19 17:49:56.289 +0100,606329399.3320541,0,-5.87,101.8799
2020-03-19 17:50:00.181 +0100,1584636598.99974,52.52523572288727,13.44348920042578,53.54573,0,217.9758155440371,10.053052779415,14.26032829598938,-9999,36039.076892,0.484893798828125,0.704742431640625,-0.7073822021484375,36039.056797,1.477557100299008,0.7906651539741794,-0.4751625049745138,-0.328886866569519,0.4760257601737976,0.4005609452724457,-0.238284707069397,0.09931540489196777,-0.1459977626800537,XArbitraryZVertical,-0.4126200618690384,0.1304559010847356,0.5369820390109209,0.724138211378778,0.632075309753418,0.4574829638004303,-0.6254518628120422,36035.18341179167,unknown,2,2020-03-19 17:49:56.289 +0100,606329399.3320541,0,-5.87,101.8799
2020-03-19 17:50:00.202 +0100,1584636599.999732,52.5252321550628,13.44349259744865,53.52221,0,217.9758183894164,10.05128041446834,14.26157758892136,-9999,36039.096987,0.4592132568359375,0.858978271484375,-0.6855010986328125,36039.076892,1.486294118967717,0.8054221483935313,-0.4748854651098271,-0.2357847690582275,0.523978590965271,0.168888196349144,-0.1947870254516602,0.2185954749584198,-0.1300519108772278,XArbitraryZVertical,-0.4170775835555213,0.1340674926634578,0.5371360917270949,0.7208030243238894,0.6413273811340332,0.4572365880012512,-0.6161444187164307,36035.18341179167,unknown,2,2020-03-19 17:49:56.289 +0100,606329399.3320541,0,-5.87,101.8799
2020-03-19 17:50:00.221 +0100,1584636599.999732,52.5252321550628,13.44349259744865,53.52221,0,217.9758183894164,10.05128041446834,14.26157758892136,-9999,36039.117082,0.41241455078125,0.6836395263671875,-0.6880340576171875,36039.096987,1.489395694550512,0.8172399843538382,-0.4754830212103624,0.01904570683836937,0.534874439239502,-0.04036585986614227,-0.1681935787200928,0.357178658246994,-0.05526483058929443,XArbitraryZVertical,-0.4206351774161943,0.1374712730390477,0.535649601054035,0.7191990098098452,0.6483645439147949,0.4577679336071014,-0.6083353757858276,36035.18341179167,unknown,2,2020-03-19 17:49:56.289 +0100,606329399.3320541,0,-5.87,101.8799
2020-03-19 17:50:00.241 +0100,1584636599.999732,52.5252321550628,13.44349259744865,53.52221,0,217.9758183894164,10.05128041446834,14.26157758892136,-9999,36039.137177,0.4693603515625,0.549560546875,-0.707183837890625,36039.137177,1.472452083332259,0.8327770713804353,-0.4643950553895423,0.7873334884643555,0.6051852703094482,0.02030707336962223,-0.2169715166091919,0.131987452507019,-0.09841036796569824,XArbitraryZVertical,-0.4202531818370842,0.1503456541611027,0.528671601965788,0.7220040070880189,0.6614521741867065,0.4478819966316223,-0.6015669107437134,36035.18341179167,unknown,2,2020-03-19 17:49:56.289 +0100,606329399.3320541,0,-5.87,101.8799
2020-03-19 17:50:00.261 +0100,1584636599.999732,52.5252321550628,13.44349259744865,53.52221,0,217.9758183894164,10.05128041446834,14.26157758892136,-9999,36039.157272,0.57562255859375,0.493133544921875,-0.6858062744140625,36039.137177,1.472452083332259,0.8327770713804353,-0.4643950553895423,0.7873334884643555,0.6051852703094482,0.02030707336962223,-0.2169715166091919,0.131987452507019,-0.09841036796569824,XArbitraryZVertical,-0.4202531818370842,0.1503456541611027,0.528671601965788,0.7220040070880189,0.6614521741867065,0.4478819966316223,-0.6015669107437134,36035.18341179167,unknown,2,2020-03-19 17:49:56.289 +0100,606329399.3320541,0,-5.87,101.8799
2020-03-19 17:50:00.281 +0100,1584636599.999732,52.5252321550628,13.44349259744865,53.52221,0,217.9758183894164,10.05128041446834,14.26157758892136,-9999,36039.177367,0.63671875,0.340911865234375,-0.6134033203125,36039.157272,1.461662155294501,0.8364487827950637,-0.4541743400531276,0.487747848033905,0.2419044375419617,0.06598128378391266,-0.1042072772979736,0.06111633777618408,-0.08891117572784424,XArbitraryZVertical,-0.4173280043027577,0.1573282193980372,0.526212266346312,0.7240067494780282,0.6670196056365967,0.4387204945087433,-0.6021703481674194,36035.18341179167,unknown,2,2020-03-19 17:49:56.289 +0100,606329399.3320541,0,-5.87,101.8799
2020-03-19 17:50:00.302 +0100,1584636599.999732,52.5252321550628,13.44349259744865,53.52221,0,217.9758183894164,10.05128041446834,14.26157758892136,-9999,36039.197462,0.7396697998046875,0.3036346435546875,-0.5976715087890625,36039.177367,1.457709753276235,0.8383648382262869,-0.4480655126942374,0.2359790652990341,0.1436497122049332,0.1496727615594864,-0.05262207984924316,-0.04648417234420776,-0.0298004150390625,XArbitraryZVertical,-0.4156755949436862,0.160865672760764,0.5257001359866051,0.7245518347178611,0.670152485370636,0.4332228302955627,-0.6026720404624939,36035.18341179167,unknown,2,2020-03-19 17:49:56.289 +0100,606329399.3320541,0,-5.87,101.8799
2020-03-19 17:50:00.324 +0100,1584636599.999732,52.5252321550628,13.44349259744865,53.52221,0,217.9758183894164,10.05128041446834,14.26157758892136,-9999,36039.217557,0.70166015625,0.3415679931640625,-0.576385498046875,36039.197462,1.457258261098373,0.8413786323721055,-0.4434423840340784,0.07243019342422485,0.1958348304033279,0.150783896446228,0.02981787919998169,-0.1374207735061646,-0.006965398788452148,XArbitraryZVertical,-0.415034341133274,0.1635772077857615,0.5259070838525121,0.7241620788848067,0.673451840877533,0.4290514290332794,-0.6019780039787292,36035.18341179167,unknown,2,2020-03-19 17:49:56.289 +0100,606329399.3320541,0,-5.87,101.8799
2020-03-19 17:50:00.342 +0100,1584636599.999732,52.5252321550628,13.44349259744865,53.52221,0,217.9758183894164,10.05128041446834,14.26157758892136,-9999,36039.237652,0.3973846435546875,0.1655426025390625,-0.154510498046875,36039.217557,1.458209769737056,0.8448930314049857,-0.4395592085985893,0.3410462141036987,-0.1622093915939331,0.2078795284032822,0.08998799324035645,-0.01931643486022949,0.1006675958633423,XArbitraryZVertical,-0.4148636879414035,0.1659326768453282,0.5263588822275536,0.7233953115335139,0.67680424451828,0.4255406260490417,-0.6007089614868164,36035.18341179167,unknown,2,2020-03-19 17:49:56.289 +0100,606329399.3320541,0,-5.87,101.8799
2020-03-19 17:50:00.362 +0100,1584636599.999732,52.5252321550628,13.44349259744865,53.52221,0,217.9758183894164,10.05128041446834,14.26157758892136,-9999,36039.257747,0.961517333984375,0.21575927734375,-0.2893218994140625,36039.237652,1.459710895603045,0.8428246770135879,-0.430618857530316,-0.06346088647842407,0.2711568176746368,0.5602438449859619,-0.2409726977348328,-0.2006317973136902,0.2963916063308716,XArbitraryZVertical,-0.4117377445114454,0.1678232549168499,0.5292482231579081,0.7226366415708001,0.678373396396637,0.4174332320690155,-0.604614794254303,36035.18341179167,unknown,2,2020-03-19 17:49:56.289 +0100,606329399.3320541,0,-5.87,101.8799
2020-03-19 17:50:00.382 +0100,1584636599.999732,52.5252321550628,13.44349259744865,53.52221,0,217.9758183894164,10.05128041446834,14.26157758892136,-9999,36039.277842,1.242721557617188,0.236236572265625,-0.6544342041015625,36039.257747,1.476362920695281,0.8633133279860246,-0.4250523326364575,-0.6376035213470459,0.8234354853630066,0.7611516714096069,0.05963331460952759,-0.2523602843284607,0.3814325332641602,XArbitraryZVertical,-0.4169212814525741,0.1735833685373044,0.5321891797145909,0.7161146070369794,0.6923731565475464,0.4123684465885162,-0.592090904712677,36035.18341179167,unknown,2,2020-03-19 17:49:56.289 +0100,606329399.3320541,0,-5.87,101.8799
2020-03-19 17:50:00.402 +0100,1584636599.999732,52.5252321550628,13.44349259744865,53.52221,0,217.9758183894164,10.05128041446834,14.26157758892136,-9999,36039.297937,0.6931304931640625,0.313690185546875,-0.92901611328125,36039.297937,1.507841453710423,0.8672915506420041,-0.4127770864129908,-0.2056211531162262,-0.9399707317352295,0.9484819769859314,0.09720748662948608,-0.1281095445156097,-0.2638942003250122,XArbitraryZVertical,-0.4170772131023526,0.1725272999912673,0.5451898623821299,0.7064339201177696,0.6985307931900024,0.4011546969413757,-0.5925618410110474,36035.18341179167,unknown,2,2020-03-19 17:49:56.289 +0100,606329399.3320541,0,-5.87,101.8799
2020-03-19 17:50:00.422 +0100,1584636599.999732,52.5252321550628,13.44349259744865,53.52221,0,217.9758183894164,10.05128041446834,14.26157758892136,-9999,36039.318032,0.7032928466796875,0.030975341796875,-0.917327880859375,36039.297937,1.507841453710423,0.8672915506420041,-0.4127770864129908,-0.2056211531162262,-0.9399707317352295,0.9484819769859314,0.09720748662948608,-0.1281095445156097,-0.2638942003250122,XArbitraryZVertical,-0.4170772131023526,0.1725272999912673,0.5451898623821299,0.7064339201177696,0.6985307931900024,0.4011546969413757,-0.5925618410110474,36035.18341179167,unknown,2,2020-03-19 17:49:56.289 +0100,606329399.3320541,0,-5.87,101.8799
2020-03-19 17:50:00.442 +0100,1584636599.999732,52.5252321550628,13.44349259744865,53.52221,0,217.9758183894164,10.05128041446834,14.26157758892136,-9999,36039.338127,0.6971282958984375,0.0561065673828125,-0.890350341796875,36039.318032,1.528867579555619,0.8588685201736759,-0.3980585706143994,-0.3052181601524353,-0.8311874270439148,1.327605485916138,-0.03121519088745117,-0.2574676871299744,-0.2940952777862549,XArbitraryZVertical,-0.4122333980873595,0.1701622299513431,0.5574441745543067,0.7002602469554868,0.6979098916053772,0.3876294493675232,-0.602216899394989,36035.18341179167,unknown,2,2020-03-19 17:49:56.289 +0100,606329399.3320541,0,-5.87,101.8799
2020-03-19 17:50:00.462 +0100,1584636599.999732,52.5252321550628,13.44349259744865,53.52221,0,217.9758183894164,10.05128041446834,14.26157758892136,-9999,36039.358222,0.4583892822265625,0.2886505126953125,-0.6234283447265625,36039.338127,1.557441894266571,0.8482023198103805,-0.3830704067138417,-0.7127898335456848,-1.313247203826904,1.491115093231201,0.04918420314788818,-0.3772907853126526,-0.300139307975769,XArbitraryZVertical,-0.4072414557763388,0.1656934514418655,0.5726790726252681,0.6919094690496709,0.6957270503044128,0.3737700879573822,-0.6134001612663269,36035.18341179167,unknown,2,2020-03-19 17:49:56.289 +0100,606329399.3320541,0,-5.87,101.8799
2020-03-19 17:50:00.482 +0100,1584636599.999732,52.5252321550628,13.44349259744865,53.52221,0,217.9758183894164,10.05128041446834,14.26157758892136,-9999,36039.378317,0.620513916015625,0.1766204833984375,-0.5746307373046875,36039.378317,1.625163749560876,0.8317533797701768,-0.3584066045087881,-0.58213871717453,-0.6395068764686584,1.523593783378601,-0.1408555507659912,-0.1277867555618286,0.0748753547668457,XArbitraryZVertical,-0.4007463250904914,0.1549601764461546,0.6040250143477421,0.671225342380785,0.6921480298042297,0.3507825434207916,-0.6307794451713562,36035.18341179167,unknown,2,2020-03-19 17:49:56.289 +0100,606329399.3320541,0,-5.87,101.8799
2020-03-19 17:50:00.515 +0100,1584636599.999732,52.5252321550628,13.44349259744865,53.52221,0,217.9758183894164,10.05128041446834,14.26157758892136,-9999,36039.398412,0.8048095703125,0.286224365234375,-0.574920654296875,36039.378317,1.625163749560876,0.8317533797701768,-0.3584066045087881,-0.58213871717453,-0.6395068764686584,1.523593783378601,-0.1408555507659912,-0.1277867555618286,0.0748753547668457,XArbitraryZVertical,-0.4007463250904914,0.1549601764461546,0.6040250143477421,0.671225342380785,0.6921480298042297,0.3507825434207916,-0.6307794451713562,36035.18341179167,unknown,2,2020-03-19 17:49:56.289 +0100,606329399.3320541,0,-5.87,101.8799
2020-03-19 17:50:00.522 +0100,1584636599.999732,52.5252321550628,13.44349259744865,53.52221,0,217.9758183894164,10.05128041446834,14.26157758892136,-9999,36039.418507,0.62408447265625,0.61529541015625,-0.4945526123046875,36039.398412,1.655236402860943,0.8332895619066081,-0.341379284696176,-0.4168760180473328,-0.2380261272192001,1.553689956665039,0.09068799018859863,-0.1496637165546417,0.0236285924911499,XArbitraryZVertical,-0.3987567088770667,0.1554763655448326,0.6170328186839488,0.6603715122668555,0.6974362730979919,0.3347871005535126,-0.6336403489112854,36035.18341179167,unknown,2,2020-03-19 17:49:56.289 +0100,606329399.3320541,0,-5.87,101.8799
2020-03-19 17:50:00.542 +0100,1584636599.999732,52.5252321550628,13.44349259744865,53.52221,0,217.9758183894164,10.05128041446834,14.26157758892136,-9999,36039.438602,0.6644134521484375,0.750579833984375,-0.5439300537109375,36039.418507,1.682731843992749,0.8395950722662167,-0.3267498793219994,-0.4299976527690887,0.02652295306324959,1.306886911392212,-0.02887868881225586,0.2853603363037109,0.1527011394500732,XArbitraryZVertical,-0.3988081090121369,0.1572751661096952,0.6275731044101464,0.649898895380417,0.704988420009613,0.3209665715694427,-0.6324332356452942,36035.18341179167,unknown,2,2020-03-19 17:49:56.289 +0100,606329399.3320541,0,-5.87,101.8799
2020-03-19 17:50:00.563 +0100,1584636599.999732,52.5252321550628,13.44349259744865,53.52221,0,217.9758183894164,10.05128041446834,14.26157758892136,-9999,36039.458697,0.7935638427734375,0.84881591796875,-0.618255615234375,36039.438602,1.705294670083121,0.8531730919979507,-0.313778586685203,-0.4015040695667267,0.6623930335044861,1.022436618804932,-0.1028090715408325,0.3743777573108673,0.07626765966415405,XArbitraryZVertical,-0.4013446806436243,0.1617972349783305,0.6345828798176426,0.6403503777270219,0.7165867686271667,0.3086549341678619,-0.6254882216453552,36035.18341179167,unknown,2,2020-03-19 17:49:56.289 +0100,606329399.3320541,0,-5.87,101.8799
2020-03-19 17:50:00.583 +0100,1584636599.999732,52.5252321550628,13.44349259744865,53.52221,0,217.9758183894164,10.05128041446834,14.26157758892136,-9999,36039.478792,0.6325225830078125,0.7122955322265625,-0.650665283203125,36039.458697,1.720608455675037,0.8755234772318672,-0.304534567237181,-0.005983041133731604,1.019739270210266,0.6570298075675964,0.05757766962051392,0.5245256423950195,0.02260732650756836,XArbitraryZVertical,-0.4072236354968586,0.1691431366333254,0.6366798930122738,0.6326121747811146,0.7325462102890015,0.2998491823673248,-0.6111190319061279,36035.18341179167,unknown,2,2020-03-19 17:49:56.289 +0100,606329399.3320541,0,-5.87,101.8799
2020-03-19 17:50:00.603 +0100,1584636599.999732,52.5252321550628,13.44349259744865,53.52221,0,217.9758183894164,10.05128041446834,14.26157758892136,-9999,36039.498887,0.7100830078125,0.510894775390625,-0.6163482666015625,36039.478792,1.723159680450479,0.9001787376808584,-0.2904787680720867,0.6636236906051636,1.369987010955811,0.656160295009613,-0.08125096559524536,0.5223234891891479,-0.07301753759384155,XArbitraryZVertical,-0.411534953314065,0.1814433097140003,0.6350961255500399,0.627989008877177,0.7506173253059387,0.2864109575748444,-0.5954346060752869,36035.18341179167,unknown,2,2020-03-19 17:49:56.289 +0100,606329399.3320541,0,-5.87,101.8799
2020-03-19 17:50:00.624 +0100,1584636599.999732,52.5252321550628,13.44349259744865,53.52221,0,217.9758183894164,10.05128041446834,14.26157758892136,-9999,36039.518982,0.9810791015625,0.4056243896484375,-0.84521484375,36039.498887,1.720395796978957,0.9302152151102904,-0.2726298705427763,0.4843215644359589,1.699299573898315,0.6248364448547363,-0.132219672203064,0.3029122352600098,-0.05717408657073975,XArbitraryZVertical,-0.4160363217027802,0.1977878681517021,0.631413073903444,0.6237878384850477,0.7721368670463562,0.2692651152610779,-0.5755874514579773,36035.18341179167,unknown,2,2020-03-19 17:49:56.289 +0100,606329399.3320541,0,-5.87,101.8799
2020-03-19 17:50:00.643 +0100,1584636599.999732,52.5252321550628,13.44349259744865,53.52221,0,217.9758183894164,10.05128041446834,14.26157758892136,-9999,36039.539077,0.8029327392578125,0.3728179931640625,-1.090789794921875,36039.518982,1.72054219765047,0.9601418608820659,-0.2570751377255421,0.2319135069847107,1.180775761604309,0.5704400539398193,0.1668120622634888,0.06766483187675476,-0.2245021462440491,XArbitraryZVertical,-0.4213522619638155,0.2125607040015806,0.6281754447202695,0.6186079621331388,0.7923497557640076,0.2542529106140137,-0.5545604228973389,36035.18341179167,unknown,2,2020-03-19 17:49:56.289 +0100,606329399.3320541,0,-5.87,101.8799
2020-03-19 17:50:00.664 +0100,1584636599.999732,52.5252321550628,13.44349259744865,53.52221,0,217.9758183894164,10.05128041446834,14.26157758892136,-9999,36039.55917154167,0.989288330078125,0.35345458984375,-0.4265899658203125,36039.539077,1.724344527821964,0.9772185001694075,-0.245508849292617,0.2787215113639832,0.4354885220527649,0.7424260377883911,0.02931112051010132,0.2105967402458191,-0.4545828700065613,XArbitraryZVertical,-0.4240750384009509,0.2210910655248871,0.6279649688101179,0.6139536497515935,0.8040878772735596,0.2430499494075775,-0.5425581932067871,36035.18341179167,unknown,2,2020-03-19 17:49:56.289 +0100,606329399.3320541,0,-5.87,101.8799
2020-03-19 17:50:00.683 +0100,1584636599.999732,52.5252321550628,13.44349259744865,53.52221,0,217.9758183894164,10.05128041446834,14.26157758892136,-9999,36039.57926654167,0.789794921875,0.4807281494140625,-0.8511199951171875,36039.55917154167,1.730030394875683,0.9910476096176906,-0.2315801273944576,-0.3445218503475189,0.5945811867713928,0.4954110085964203,0.1465733647346497,0.0691167414188385,-0.00817108154296875,XArbitraryZVertical,-0.4254000264117129,0.2289976199671279,0.629443732877922,0.6086012653356,0.8142672181129456,0.2295157611370087,-0.5331898331642151,36035.18341179167,unknown,2,2020-03-19 17:49:56.289 +0100,606329399.3320541,0,-5.87,101.8799
2020-03-19 17:50:00.703 +0100,1584636599.999732,52.5252321550628,13.44349259744865,53.52221,0,217.9758183894164,10.05128041446834,14.26157758892136,-9999,36039.59936154167,0.260284423828125,0.249725341796875,-0.714080810546875,36039.57926654167,1.738828394163037,0.9940226491872253,-0.228343495579158,0.001779255457222462,-0.3772773444652557,0.3339886963367462,0.04860800504684448,0.2507502138614655,-0.3061378598213196,XArbitraryZVertical,-0.4264988670319959,0.2291616768401789,0.6320991694372295,0.6050076329458465,0.8164682984352112,0.226364329457283,-0.5311672687530518,36035.18341179167,unknown,2,2020-03-19 17:49:56.289 +0100,606329399.3320541,0,-5.87,101.8799
2020-03-19 17:50:00.723 +0100,1584636599.999732,52.5252321550628,13.44349259744865,53.52221,0,217.9758183894164,10.05128041446834,14.26157758892136,-9999,36039.61945654167,0.1369781494140625,0.1017913818359375,-0.8826141357421875,36039.59936154167,1.739689062825329,0.9827179651861733,-0.2217923245451741,0.2437532246112823,-0.6540517807006836,0.2340909689664841,-0.4003633260726929,0.1044566333293915,-0.1651343703269958,XArbitraryZVertical,-0.4212981236862526,0.2278614092936444,0.6359989293649941,0.6050556513532772,0.811627984046936,0.219978392124176,-0.5411741137504578,36035.18341179167,unknown,2,2020-03-19 17:49:56.289 +0100,606329399.3320541,0,-5.87,101.8799
2020-03-19 17:50:00.744 +0100,1584636599.999732,52.5252321550628,13.44349259744865,53.52221,0,217.9758183894164,10.05128041446834,14.26157758892136,-9999,36039.63955154167,0.249664306640625,0.1711273193359375,-0.7352142333984375,36039.61945654167,1.737829880958241,0.9715485679209036,-0.2159335807017685,0.154357835650444,-0.3814103305339813,0.1751429289579391,-0.7250915765762329,-0.1002889573574066,-0.311223566532135,XArbitraryZVertical,-0.4159823562521684,0.2269298324677842,0.638871752003042,0.606056402663067,0.8065832853317261,0.2142594158649445,-0.5509230494499207,36035.18341179167,unknown,2,2020-03-19 17:49:56.289 +0100,606329399.3320541,0,-5.87,101.8799
2020-03-19 17:50:00.764 +0100,1584636599.999732,52.5252321550628,13.44349259744865,53.52221,0,217.9758183894164,10.05128041446834,14.26157758892136,-9999,36039.65964654167,0.826202392578125,-0.0501708984375,-0.693084716796875,36039.63955154167,1.737633926151494,0.9652296175374696,-0.2139580612950883,0.07438354939222336,-0.3693440556526184,0.02736568450927734,-0.537339985370636,-0.03851392865180969,-0.1535238027572632,XArbitraryZVertical,-0.4134155623943851,0.2257504155992197,0.6404893641673707,0.6065456759149778,0.8034324049949646,0.2123293578624725,-0.556248664855957,36035.18341179167,unknown,2,2020-03-19 17:49:56.289 +0100,606329399.3320541,0,-5.87,101.8799
2020-03-19 17:50:00.783 +0100,1584636599.999732,52.5252321550628,13.44349259744865,53.52221,0,217.9758183894164,10.05128041446834,14.26157758892136,-9999,36039.67974054167,1.120712280273438,0.2290191650390625,-0.612548828125,36039.65964654167,1.736091632363341,0.9601018323787024,-0.2104473970321178,0.09695655852556229,-0.09345030784606934,0.07621008902788162,-0.1877317428588867,-0.225359171628952,-0.2070470452308655,XArbitraryZVertical,-0.4106639426302543,0.2257488767999657,0.6417256542940213,0.6071084975764759,0.8011752963066101,0.2088974416255951,-0.5607851147651672,36035.18341179167,unknown,2,2020-03-19 17:49:56.289 +0100,606329399.3320541,0,-5.87,101.8799
2020-03-19 17:50:00.804 +0100,1584636599.999732,52.5252321550628,13.44349259744865,53.52221,0,217.9758183894164,10.05128041446834,14.26157758892136,-9999,36039.69983554167,0.3304595947265625,0.27764892578125,-0.620147705078125,36039.67974054167,1.736152929282132,0.9537689908580331,-0.2137258179713183,-0.04796851798892021,-0.7297499775886536,-0.3058071136474609,0.3863906860351562,-0.02456936240196228,-0.06323903799057007,XArbitraryZVertical,-0.409511936154816,0.2226563299812999,0.642440212551504,0.608271854394235,0.7970450520515442,0.2121024131774902,-0.5654482841491699,36035.18341179167,unknown,2,2020-03-19 17:49:56.289 +0100,606329399.3320541,0,-5.87,101.8799
2020-03-19 17:50:00.824 +0100,1584636599.999732,52.5252321550628,13.44349259744865,53.52221,0,217.9758183894164,10.05128041446834,14.26157758892136,-9999,36039.71993054167,0.2064971923828125,0.1522979736328125,-0.8851318359375,36039.69983554167,1.729089837360876,0.9330944711920197,-0.2182708064512975,0.2343335747718811,-1.059649705886841,-0.4531505405902863,-0.3096307516098022,0.05387717485427856,0.03687280416488647,XArbitraryZVertical,-0.4033082016839203,0.2161713717454026,0.6436529207299019,0.6134520072010079,0.7844025492668152,0.2165417820215225,-0.5812248587608337,36035.18341179167,unknown,2,2020-03-19 17:49:56.289 +0100,606329399.3320541,0,-5.87,101.8799
2020-03-19 17:50:00.844 +0100,1584636599.999732,52.5252321550628,13.44349259744865,53.52221,0,217.9758183894164,10.05128041446834,14.26157758892136,-9999,36039.74002554167,0.296142578125,-0.0630645751953125,-0.5557403564453125,36039.71993054167,1.717349569544881,0.9095616228918801,-0.2224401905335159,0.392417699098587,-0.9808902740478516,-0.5030685067176819,-0.5689284205436707,0.01391994953155518,-0.2967851161956787,XArbitraryZVertical,-0.3956138015876912,0.2097828012593906,0.6439762266547563,0.6203027021333393,0.769789457321167,0.2206103503704071,-0.5989617705345154,36035.18341179167,unknown,2,2020-03-19 17:49:56.289 +0100,606329399.3320541,0,-5.87,101.8799
2020-03-19 17:50:00.864 +0100,1584636599.999732,52.5252321550628,13.44349259744865,53.52221,0,217.9758183894164,10.05128041446834,14.26157758892136,-9999,36039.76012054167,0.849273681640625,0.1444854736328125,-0.8912811279296875,36039.74002554167,1.709875345550323,0.8925890819836437,-0.2277862078399008,-0.1690688133239746,-0.5782898664474487,-0.4061805903911591,-0.5209033489227295,-0.3018531501293182,0.005529403686523438,XArbitraryZVertical,-0.3908422158632074,0.2040749720791884,0.6440243801085843,0.6251627467085952,0.7585839629173279,0.22582146525383,-0.6111915111541748,36035.18341179167,unknown,2,2020-03-19 17:49:56.289 +0100,606329399.3320541,0,-5.87,101.8799
2020-03-19 17:50:00.884 +0100,1584636599.999732,52.5252321550628,13.44349259744865,53.52221,0,217.9758183894164,10.05128041446834,14.26157758892136,-9999,36039.78021554167,1.059722900390625,0.2254486083984375,-0.767364501953125,36039.76012054167,1.707221764296639,0.8764531538009921,-0.2377802469927224,-0.1397764831781387,-0.9914135932922363,-0.5144032835960388,-0.04399198293685913,-0.1258780509233475,-0.2070980668067932,XArbitraryZVertical,-0.3881375132923424,0.1959871176291081,0.6445442221727642,0.6288887624208503,0.7468518018722534,0.2355459183454514,-0.6218766570091248,36035.18341179167,unknown,2,2020-03-19 17:49:56.289 +0100,606329399.3320541,0,-5.87,101.8799
2020-03-19 17:50:00.904 +0100,1584636599.999732,52.5252321550628,13.44349259744865,53.52221,0,217.9758183894164,10.05128041446834,14.26157758892136,-9999,36039.80031054167,0.7295074462890625,0.128997802734375,-0.62628173828125,36039.78021554167,1.70206885614527,0.852329152312738,-0.2484062915524773,-0.1751577407121658,-1.405907154083252,-0.5805855989456177,0.3525609374046326,-0.02049939334392548,-0.1119985580444336,XArbitraryZVertical,-0.3828136714865025,0.1855801241723329,0.6456722993571888,0.6341301381672296,0.7297082543373108,0.2458594888448715,-0.6380274295806885,36035.18341179167,unknown,2,2020-03-19 17:49:56.289 +0100,606329399.3320541,0,-5.87,101.8799
2020-03-19 17:50:00.924 +0100,1584636599.999732,52.5252321550628,13.44349259744865,53.52221,0,217.9758183894164,10.05128041446834,14.26157758892136,-9999,36039.82040554167,0.5425262451171875,0.2590179443359375,-0.703033447265625,36039.80031054167,1.695213146407193,0.8186753191810922,-0.2587809220778358,-0.1250346601009369,-1.585672736167908,-0.665902853012085,0.0858151912689209,-0.1044250726699829,-0.05478018522262573,XArbitraryZVertical,-0.3742218771947823,0.172445912431608,0.6480277775287947,0.6405314179048059,0.7059264183044434,0.2559022605419159,-0.6604408025741577,36035.18341179167,unknown,2,2020-03-19 17:49:56.289 +0100,606329399.3320541,0,-5.87,101.8799
