loggingTime(txt),accelerometerTimestamp_sinceReboot(s),accelerometerAccelerationX(G),accelerometerAccelerationY(G),accelerometerAccelerationZ(G),motionTimestamp_sinceReboot(s),motionYaw(rad),motionRoll(rad),motionPitch(rad),motionRotationRateX(rad/s),motionRotationRateY(rad/s),motionRotationRateZ(rad/s),motionUserAccelerationX(G),motionUserAccelerationY(G),motionUserAccelerationZ(G),motionAttitudeReferenceFrame(txt),motionQuaternionX(R),motionQuaternionY(R),motionQuaternionZ(R),motionQuaternionW(R),motionGravityX(G),motionGravityY(G),motionGravityZ(G),activityTimestamp_sinceReboot(s),activity(txt),activityActivityConfidence(Z),activityActivityStartDate(txt),altimeterTimestamp_sinceReboot(s),altimeterReset(bool),altimeterRelativeAltitude(m),altimeterPressure(kPa)
2020-03-11 14:13:46.153 +0100,65688.59005925001,0.059234619140625,-1.059341430664062,-0.0096588134765625,65688.58503425001,-0.3579467782701121,0.2541173057110753,1.54347329814835,0.2231947779655457,0.05974245071411133,0.02829669415950775,0.06176794692873955,-0.02638369798660278,0.07092404365539551,XArbitraryZVertical,0.6968795637831871,-0.03378004215170855,-0.03959915352626722,0.7152967879497502,0.006866170559078455,-0.9996267557144165,-0.02643556520342827,65662.82436754167,unknown,2,2020-03-11 14:13:20.361 +0100,605625226.040729,0,44257.92,100.1227
2020-03-11 14:13:46.183 +0100,65688.60010925001,0.000946044921875,-1.044189453125,-0.053131103515625,65688.59508425,-0.3471279238817558,0.2428341897254201,1.545626998820249,0.1985043436288834,-0.1160706505179405,0.1351890563964844,0.05318340286612511,-0.05966770648956299,0.01477819681167603,XArbitraryZVertical,0.697575751597729,-0.03426688181269476,-0.03944071246430408,0.7146035727568426,0.006051296833902597,-0.9996832609176636,-0.02442770265042782,65662.82436754167,unknown,2,2020-03-11 14:13:20.361 +0100,605625226.040729,0,44257.92,100.1227
2020-03-11 14:13:46.184 +0100,65688.61015925001,-0.01202392578125,-1.046310424804688,-0.0773468017578125,65688.60513425,-0.2782986846011049,0.1728333733220739,1.547980570176073,0.1925861984491348,-0.1164519265294075,0.2805637121200562,-0.002975888550281525,-0.04445892572402954,-0.03065621852874756,XArbitraryZVertical,0.6982186385498194,-0.03546472768534685,-0.03907169408312568,0.7139371128824351,0.003921999596059322,-0.9997397065162659,-0.02246597222983837,65662.82436754167,unknown,2,2020-03-11 14:13:20.361 +0100,605625226.040729,0,44257.92,100.1227
2020-03-11 14:13:46.185 +0100,65688.62020925,-0.0391082763671875,-1.004623413085938,-0.0784454345703125,65688.61518425001,-0.1402246252879847,0.03365940998179178,1.550243293099814,0.2112962305545807,-0.1048216372728348,0.3157416582107544,-0.01271535828709602,-0.04653114080429077,-0.05680221319198608,XArbitraryZVertical,0.6988286064448377,-0.03702603343153434,-0.03828767958178205,0.7133033070164752,0.0006914673722349107,-0.9997888207435608,-0.0205353032797575,65662.82436754167,unknown,2,2020-03-11 14:13:20.361 +0100,605625226.040729,0,44257.92,100.1227
2020-03-11 14:13:46.186 +0100,65688.63025825001,-0.0503387451171875,-0.9956207275390625,-0.0405731201171875,65688.62523325,0.01411825606205292,-0.1213115647205561,1.552759124702074,0.3142967522144318,-0.02107454463839531,0.2322323173284531,-0.03692673519253731,-0.004795610904693604,-0.06054151058197021,XArbitraryZVertical,0.6997035017257446,-0.03831049579585399,-0.03744795166295541,0.7124217846789005,-0.002181537682190537,-0.999837338924408,-0.01789463125169277,65662.82436754167,unknown,2,2020-03-11 14:13:20.361 +0100,605625226.040729,0,44257.92,100.1227
2020-03-11 14:13:46.186 +0100,65688.64030825,-0.03076171875,-0.9871368408203125,-0.023040771484375,65688.63528325,0.1738322375394089,-0.2808702909615918,1.555476286715538,0.3085075616836548,0.04125380888581276,0.183777704834938,-0.0460934229195118,0.004252374172210693,-0.025848388671875,XArbitraryZVertical,0.7007979637037046,-0.03904517147547718,-0.03660410753096774,0.7113492581381408,-0.004245339427143335,-0.9998826384544373,-0.01471537724137306,65662.82436754167,unknown,2,2020-03-11 14:13:20.361 +0100,605625226.040729,0,44257.92,100.1227
2020-03-11 14:13:46.187 +0100,65688.65035825,-0.025787353515625,-0.9923553466796875,-0.0267181396484375,65688.64533325001,0.3603708852963892,-0.4671695458937357,1.557652195448402,0.2747766673564911,-0.01054359134286642,0.1478631347417831,-0.02484935894608498,0.01276755332946777,-0.0113103985786438,XArbitraryZVertical,0.7018337324096243,-0.03960703317157557,-0.03587459811788644,0.7103333726427273,-0.005912388674914837,-0.9999136328697205,-0.01172139029949903,65662.82436754167,unknown,2,2020-03-11 14:13:20.361 +0100,605625226.040729,0,44257.92,100.1227
2020-03-11 14:13:46.196 +0100,65688.66040825,-0.026092529296875,-1.006484985351562,-0.03466796875,65688.65538325001,0.5621319054298851,-0.6693008416750722,1.558979681261965,0.1943220198154449,-0.0665767639875412,0.1444683969020844,-0.01846501231193542,0.00756537914276123,-0.01745301485061646,XArbitraryZVertical,0.7026731257994596,-0.04028151284017985,-0.03546168268351919,0.7094858528063465,-0.007322384044528008,-0.999930202960968,-0.009255755692720413,65662.82436754167,unknown,2,2020-03-11 14:13:20.361 +0100,605625226.040729,0,44257.92,100.1227
2020-03-11 14:13:46.206 +0100,65688.67045725,-0.0098724365234375,-1.00732421875,-0.049163818359375,65688.66543225001,0.7310059208804491,-0.8392478535655621,1.559041948238407,0.05180278420448303,-0.1559270173311234,0.159514307975769,-0.0173521563410759,-0.006563723087310791,-0.02681207656860352,XArbitraryZVertical,0.7031219931311858,-0.04118586368526142,-0.03531451828777303,0.708996454352931,-0.008740433491766453,-0.9999309182167053,-0.007846374996006489,65662.82436754167,unknown,2,2020-03-11 14:13:20.361 +0100,605625226.040729,0,44257.92,100.1227
2020-03-11 14:13:46.216 +0100,65688.68050725,0.00408935546875,-1.018386840820312,-0.0711517333984375,65688.67548225001,0.7624761295041216,-0.8726891711825312,1.557535146456525,-0.1893216818571091,-0.2388866096735001,0.1340174674987793,0.0002742484211921692,-0.007421612739562988,-0.04064077138900757,XArbitraryZVertical,0.7028147540913989,-0.04236229381012523,-0.0355297693331357,0.7092209013671122,-0.01014675665646791,-0.9999120831489563,-0.008513715118169785,65662.82436754167,unknown,2,2020-03-11 14:13:20.361 +0100,605625226.040729,0,44257.92,100.1227
2020-03-11 14:13:46.226 +0100,65688.69055725001,0.011962890625,-1.0274658203125,-0.091796875,65688.68553225001,0.664697914319568,-0.777537108473903,1.55463647450272,-0.3853278458118439,-0.2690629661083221,0.09921524673700333,0.01542207598686218,-0.01852697134017944,-0.05962997674942017,XArbitraryZVertical,0.7016687663057205,-0.04364333835026532,-0.03610137354315714,0.7102484187483271,-0.01133281178772449,-0.9998694062232971,-0.0115124024450779,65662.82436754167,unknown,2,2020-03-11 14:13:20.361 +0100,605625226.040729,0,44257.92,100.1227
2020-03-11 14:13:46.237 +0100,65688.70060725001,0.02203369140625,-1.0318603515625,-0.1103515625,65688.69558225,0.5254522831959041,-0.6411760372126553,1.550607063810576,-0.5260865688323975,-0.3027010858058929,0.04308991879224777,0.02403097227215767,-0.02767914533615112,-0.07561850547790527,XArbitraryZVertical,0.6999333502199174,-0.04481923182706029,-0.03696080292416971,0.7118414159362209,-0.01206817384809256,-0.9997962117195129,-0.01616908423602581,65662.82436754167,unknown,2,2020-03-11 14:13:20.361 +0100,605625226.040729,0,44257.92,100.1227
2020-03-11 14:13:46.247 +0100,65688.71065625,0.024810791015625,-1.0260009765625,-0.1029510498046875,65688.70563125001,0.3991239677335006,-0.5180057226617594,1.54558918426156,-0.5925831198692322,-0.3112624883651733,0.01835821010172367,0.03451083227992058,-0.03218758106231689,-0.08844918012619019,XArbitraryZVertical,0.697812516861591,-0.04594724308407191,-0.0380591059116193,0.71379121952633,-0.01247723679989576,-0.9996823072433472,-0.02189308404922485,65662.82436754167,unknown,2,2020-03-11 14:13:20.361 +0100,605625226.040729,0,44257.92,100.1227
2020-03-11 14:13:46.257 +0100,65688.72070625001,0.0192718505859375,-1.01220703125,-0.0770111083984375,65688.71568125,0.299316138354599,-0.4210828636899225,1.540150289368579,-0.6098334789276123,-0.2563278377056122,-0.03788002580404282,0.03733315691351891,-0.02648019790649414,-0.07498186826705933,XArbitraryZVertical,0.6955762136684457,-0.0468377328012031,-0.03920148271835629,0.7158512685103499,-0.01252246275544167,-0.9995304346084595,-0.02795991487801075,65662.82436754167,unknown,2,2020-03-11 14:13:20.361 +0100,605625226.040729,0,44257.92,100.1227
2020-03-11 14:13:46.267 +0100,65688.73075625001,0.0029449462890625,-1.014007568359375,-0.0478515625,65688.72573125,0.2140481760521422,-0.3380917060946518,1.534781983818165,-0.5828469395637512,-0.1772648543119431,-0.09645329415798187,0.03121302276849747,-0.01286494731903076,-0.04303854703903198,XArbitraryZVertical,0.6933843219145664,-0.04729105476679386,-0.04035096493457607,0.7178811539237389,-0.01194126065820456,-0.9993515610694885,-0.03396347537636757,65662.82436754167,unknown,2,2020-03-11 14:13:20.361 +0100,605625226.040729,0,44257.92,100.1227
2020-03-11 14:13:46.277 +0100,65688.74080625,0.0059661865234375,-1.016616821289062,-0.019927978515625,65688.73578125,0.1411870675045187,-0.2663906943654457,1.529992898430298,-0.4906650483608246,-0.03390050679445267,-0.1520656794309616,0.01368249580264091,-0.01484936475753784,-0.008492708206176758,XArbitraryZVertical,0.6914493658882267,-0.04714734459400872,-0.04130908094506051,0.7197001528678892,-0.01073762681335211,-0.9991676807403564,-0.03934980556368828,65662.82436754167,unknown,2,2020-03-11 14:13:20.361 +0100,605625226.040729,0,44257.92,100.1227
2020-03-11 14:13:46.287 +0100,65688.75085525001,0.008026123046875,-1.026992797851562,0.017608642578125,65688.74583025,0.07972186862464024,-0.2045208045657862,1.526205941502866,-0.3700407445430756,0.142249584197998,-0.1782746613025665,0.01501848921179771,-0.01762020587921143,0.02372336387634277,XArbitraryZVertical,0.6899518492133428,-0.04631631373838166,-0.041851063257888,0.7211584697279599,-0.009052366949617863,-0.9990060329437256,-0.04364249110221863,65662.82436754167,unknown,2,2020-03-11 14:13:20.361 +0100,605625226.040729,0,44257.92,100.1227
2020-03-11 14:13:46.297 +0100,65688.76090525,0.0224151611328125,-1.022476196289062,0.054534912109375,65688.75588025,0.02828608697773394,-0.150392962500886,1.52347301955668,-0.2501718699932098,0.4014787375926971,-0.1906532943248749,0.01511343568563461,-0.02812182903289795,0.06438744068145752,XArbitraryZVertical,0.6889294040560735,-0.04462507325145836,-0.04163991361608808,0.722254041563091,-0.007087357342243195,-0.9988804459571838,-0.04676975682377815,65662.82436754167,unknown,2,2020-03-11 14:13:20.361 +0100,605625226.040729,0,44257.92,100.1227
2020-03-11 14:13:46.307 +0100,65688.77095525,0.03485107421875,-0.90411376953125,-3.0517578125e-05,65688.76593025001,-0.03860855502928245,-0.07959787862535184,1.522135743557183,-0.06420357525348663,0.4000012278556824,-0.4078089594841003,0.02628248184919357,-0.02366942167282104,0.1030271053314209,XArbitraryZVertical,0.6884658926117943,-0.04210827957197767,-0.04140327390381504,0.7228604037109079,-0.003867332125082612,-0.9988163113594055,-0.04848321527242661,65662.82436754167,unknown,2,2020-03-11 14:13:20.361 +0100,605625226.040729,0,44257.92,100.1227
2020-03-11 14:13:46.317 +0100,65688.78100525,-0.0120697021484375,-0.938140869140625,-0.02886962890625,65688.77598025001,-0.1359819805274826,0.02145860289712498,1.52222731293789,0.05959959328174591,0.3563994169235229,-0.5232457518577576,0.03380942344665527,0.09469741582870483,0.04851478338241577,XArbitraryZVertical,0.6886236731482681,-0.03910600592836229,-0.04180634270054774,0.7228556306856379,0.001041681389324367,-0.9988207817077637,-0.04853631556034088,65662.82436754167,unknown,2,2020-03-11 14:13:20.361 +0100,605625226.040729,0,44257.92,100.1227
2020-03-11 14:13:46.327 +0100,65688.79105425,-0.06475830078125,-0.9579010009765625,-0.04095458984375,65688.78602925,-0.2537094713891592,0.1427640529171134,1.522557594272846,0.1144332215189934,0.3855262994766235,-0.5874891877174377,-0.01892992854118347,0.06068623065948486,0.01886618137359619,XArbitraryZVertical,0.6890954225697763,-0.03583542761371467,-0.04255202200647804,0.7225320075554533,0.006860320456326008,-0.9988367557525635,-0.04772664234042168,65662.82436754167,unknown,2,2020-03-11 14:13:20.361 +0100,605625226.040729,0,44257.92,100.1227
2020-03-11 14:13:46.337 +0100,65688.80110425,-0.09033203125,-0.9673614501953125,-0.0588226318359375,65688.79607925001,-0.3800077869248029,0.2731280916138742,1.522094551198195,0.04907019436359406,0.4558103084564209,-0.6153258681297302,-0.07788935303688049,0.04090368747711182,0.005930244922637939,XArbitraryZVertical,0.6895817895463298,-0.03223575496971654,-0.04328141987121459,0.7221941613900253,0.0131312096491456,-0.9988142848014832,-0.04687562212347984,65662.82436754167,unknown,2,2020-03-11 14:13:20.361 +0100,605625226.040729,0,44257.92,100.1227
2020-03-11 14:13:46.347 +0100,65688.81115425,-0.024017333984375,-0.977996826171875,-0.0810089111328125,65688.80612925001,-0.4970641481063807,0.394956877451296,1.519805805874106,-0.07361925393342972,0.5036633014678955,-0.6174858808517456,-0.1099420487880707,0.03132921457290649,-0.01177084445953369,XArbitraryZVertical,0.6896941004983377,-0.02829751818750011,-0.04384855124692826,0.7222177585432005,0.01961023360490799,-0.9987002611160278,-0.0470425970852375,65662.82436754167,unknown,2,2020-03-11 14:13:20.361 +0100,605625226.040729,0,44257.92,100.1227
2020-03-11 14:13:46.357 +0100,65688.82120425001,0.071441650390625,-0.9565277099609375,-0.08154296875,65688.81617925,-0.579259806591943,0.4815117614079054,1.516725157466505,-0.1183286681771278,0.3718312084674835,-0.4023565053939819,-0.04904563724994659,0.02053219079971313,-0.03310143947601318,XArbitraryZVertical,0.6895161907006476,-0.02486357987477258,-0.04420205061653325,0.7224924385095249,0.02502856217324734,-0.9985384941101074,-0.04789844900369644,65662.82436754167,unknown,2,2020-03-11 14:13:20.361 +0100,605625226.040729,0,44257.92,100.1227
2020-03-11 14:13:46.367 +0100,65688.83125325,0.1011810302734375,-0.9105682373046875,-0.0503387451171875,65688.82622825001,-0.6154418512848506,0.5209035377567235,1.51400714271397,-0.1519561260938644,0.2725211977958679,-0.25294229388237,0.04319589585065842,0.04185062646865845,-0.03230422735214233,XArbitraryZVertical,0.6891114769023896,-0.0225963524576864,-0.04420058267589633,0.7229529743071961,0.02824605628848076,-0.9983879327774048,-0.04922955483198166,65662.82436754167,unknown,2,2020-03-11 14:13:20.361 +0100,605625226.040729,0,44257.92,100.1227
2020-03-11 14:13:46.377 +0100,65688.84130325001,0.0916748046875,-0.910675048828125,-0.03656005859375,65688.83627825,-0.6334699470495786,0.5412186255179517,1.511555081838413,-0.1983193606138229,0.1886095404624939,-0.1876114904880524,0.0706801563501358,0.08766794204711914,0.0004136562347412109,XArbitraryZVertical,0.6886130508521122,-0.02098530588413109,-0.04419459567560001,0.7234766137065297,0.03050119429826736,-0.9982457756996155,-0.05074336752295494,65662.82436754167,unknown,2,2020-03-11 14:13:20.361 +0100,605625226.040729,0,44257.92,100.1227
2020-03-11 14:13:46.387 +0100,65688.85135325001,0.060516357421875,-0.9271087646484375,-0.0263214111328125,65688.84632825,-0.6395839592609431,0.5488176182386942,1.509115307889482,-0.2000049501657486,0.1220596209168434,-0.1266153901815414,0.05951929837465286,0.0874137282371521,0.01603585481643677,XArbitraryZVertical,0.6879768778890113,-0.01985816309468869,-0.04427094534650886,0.7241086740703768,0.0321558378636837,-0.9980983138084412,-0.05258693918585777,65662.82436754167,unknown,2,2020-03-11 14:13:20.361 +0100,605625226.040729,0,44257.92,100.1227
2020-03-11 14:13:46.397 +0100,65688.86140325,0.076263427734375,-0.911834716796875,-0.026519775390625,65688.85637825,-0.6434864048794467,0.5537957866744363,1.506595818246152,-0.2385597974061966,0.09177228808403015,-0.2065331339836121,0.02677708119153976,0.07082152366638184,0.02825236320495605,XArbitraryZVertical,0.6872849079203921,-0.01889533853058379,-0.04447174144730748,0.7247789282185746,0.03373962640762329,-0.9979398846626282,-0.05456484481692314,65662.82436754167,unknown,2,2020-03-11 14:13:20.361 +0100,605625226.040729,0,44257.92,100.1227
2020-03-11 14:13:46.407 +0100,65688.87145225001,0.0659027099609375,-0.923309326171875,-0.0316314697265625,65688.86642725,-0.6431803712442501,0.554219362801577,1.503571269534194,-0.2752958238124847,0.0709536224603653,-0.1253792196512222,0.04091242328286171,0.08589702844619751,0.03060644865036011,XArbitraryZVertical,0.6863790280065015,-0.01803265315655363,-0.04481613793396234,0.7256376566670597,0.03535136952996254,-0.9977412223815918,-0.05711730569601059,65662.82436754167,unknown,2,2020-03-11 14:13:20.361 +0100,605625226.040729,0,44257.92,100.1227
2020-03-11 14:13:46.417 +0100,65688.88150225001,0.0499420166015625,-0.9440155029296875,-0.04595947265625,65688.87647725,-0.6351773341992869,0.5468682846619686,1.500855410569631,-0.2371013015508652,0.06055663898587227,-0.08255345374345779,0.02956359833478928,0.07423609495162964,0.02806752920150757,XArbitraryZVertical,0.6854572766264757,-0.01741743345100427,-0.04496816204011347,0.7265140403511887,0.03633948788046837,-0.997555136680603,-0.05968990921974182,65662.82436754167,unknown,2,2020-03-11 14:13:20.361 +0100,605625226.040729,0,44257.92,100.1227
2020-03-11 14:13:46.428 +0100,65688.89155225,0.0318756103515625,-0.9446868896484375,-0.0503997802734375,65688.88652725,-0.625601657623444,0.5378769255960218,1.498728590674062,-0.1978294849395752,0.04432613775134087,-0.04947622865438461,0.0130544900894165,0.05337905883789062,0.01588529348373413,XArbitraryZVertical,0.6846850025081117,-0.01698836994329423,-0.04498239122835507,0.7272511343318623,0.03688791394233704,-0.9974042177200317,-0.06183568388223648,65662.82436754167,unknown,2,2020-03-11 14:13:20.361 +0100,605625226.040729,0,44257.92,100.1227
2020-03-11 14:13:46.438 +0100,65688.90160225,-0.0220794677734375,-0.96038818359375,-0.0612030029296875,65688.89657725001,-0.6177359161021639,0.5301943676868284,1.497260916610102,-0.07781145721673965,-0.04319358989596367,0.02691574580967426,-0.005276128649711609,0.05260086059570312,0.0129895806312561,XArbitraryZVertical,0.6841252673096356,-0.01680715161912903,-0.04503262270538748,0.7277788127482874,0.03715213388204575,-0.997297465801239,-0.06338027864694595,65662.82436754167,unknown,2,2020-03-11 14:13:20.361 +0100,605625226.040729,0,44257.92,100.1227
2020-03-11 14:13:46.448 +0100,65688.91165125,-0.0689849853515625,-0.94873046875,-0.0341949462890625,65688.90662625,-0.5950020633447868,0.5069595390657299,1.498919507250499,0.1699833571910858,-0.04048850014805794,0.3824447691440582,-0.05694561451673508,0.03702008724212646,0.001586318016052246,XArbitraryZVertical,0.6843194618747773,-0.01779704505893064,-0.0443982637624937,0.7276116733446165,0.03486651554703712,-0.9974179863929749,-0.06278027594089508,65662.82436754167,unknown,2,2020-03-11 14:13:20.361 +0100,605625226.040729,0,44257.92,100.1227
2020-03-11 14:13:46.458 +0100,65688.92170125,0.0074615478515625,-0.9550018310546875,-0.0413665771484375,65688.91667625001,-0.5633032113969542,0.4753871787016732,1.501556326752661,0.03911055997014046,0.05324198305606842,0.2091094404459,-0.1006485894322395,0.04886347055435181,0.02732616662979126,XArbitraryZVertical,0.6847529392988044,-0.01890738585495885,-0.04320146438725418,0.7272478568862002,0.03166394680738449,-0.9976038932800293,-0.06151184439659119,65662.82436754167,unknown,2,2020-03-11 14:13:20.361 +0100,605625226.040729,0,44257.92,100.1227
2020-03-11 14:13:46.468 +0100,65688.93175125,0.0257720947265625,-0.9365386962890625,-0.041534423828125,65688.92672625001,-0.5496435134459774,0.4624053768220561,1.501908247987977,-0.03170095384120941,0.06886047869920731,0.04647260159254074,-0.02324452623724937,0.04261618852615356,0.02024686336517334,XArbitraryZVertical,0.6847163758103232,-0.01901253153447773,-0.04261806201575054,0.7273139910129911,0.03070640936493874,-0.9976281523704529,-0.06160401552915573,65662.82436754167,unknown,2,2020-03-11 14:13:20.361 +0100,605625226.040729,0,44257.92,100.1227
2020-03-11 14:13:46.478 +0100,65688.94180125001,0.0221710205078125,-0.9474945068359375,-0.0401458740234375,65688.93677625,-0.5428459455998833,0.45625910761132,1.502284199423801,0.0488402247428894,0.0574730709195137,0.07511916011571884,-0.00438939593732357,0.06110537052154541,0.01992946863174438,XArbitraryZVertical,0.6847716966353606,-0.01898459814150618,-0.04218657699268219,0.7272877782210346,0.03016181476414204,-0.9976539611816406,-0.06145461648702621,65662.82436754167,unknown,2,2020-03-11 14:13:20.361 +0100,605625226.040729,0,44257.92,100.1227
2020-03-11 14:13:46.488 +0100,65688.95185025,0.0428009033203125,-0.9991455078125,-0.0411529541015625,65688.94682525001,-0.5369598022053761,0.4509031006967339,1.503238992055982,0.07335725426673889,0.04978976026177406,0.0849996879696846,-0.007245436310768127,0.05021446943283081,0.02062058448791504,XArbitraryZVertical,0.6850236760681517,-0.0190777186115696,-0.04172019299162089,0.7270748834263012,0.02941677905619144,-0.997718870639801,-0.06075720861554146,65662.82436754167,unknown,2,2020-03-11 14:13:20.361 +0100,605625226.040729,0,44257.92,100.1227
2020-03-11 14:13:46.498 +0100,65688.96190025001,0.0458526611328125,-1.020706176757812,-0.03955078125,65688.95687525001,-0.5283308932204225,0.4427889952428239,1.504312777101914,0.06910578161478043,0.06113828346133232,0.1158020719885826,0.01433747075498104,-0.001364648342132568,0.01888209581375122,XArbitraryZVertical,0.6852857524927363,-0.01925003497687816,-0.04118549146262698,0.7268538232436073,0.02846373803913593,-0.9977907538414001,-0.06002574786543846,65662.82436754167,unknown,2,2020-03-11 14:13:20.361 +0100,605625226.040729,0,44257.92,100.1227
2020-03-11 14:13:46.508 +0100,65688.97195025001,0.021087646484375,-1.032638549804688,-0.03033447265625,65688.96692525,-0.5150953206550405,0.4303489826675288,1.505718565180786,0.1138667240738869,0.09206106513738632,0.1859601587057114,0.01872261799871922,-0.02283310890197754,0.01956057548522949,XArbitraryZVertical,0.6856166736476684,-0.01946343424466925,-0.04041165513407487,0.726579536946147,0.02713034301996231,-0.9978832006454468,-0.059101901948452,65662.82436754167,unknown,2,2020-03-11 14:13:20.361 +0100,605625226.040729,0,44257.92,100.1227
2020-03-11 14:13:46.518 +0100,65688.98200025001,0.07891845703125,-1.067611694335938,-0.0418701171875,65688.97697525,-0.4905368459019217,0.4068892593387861,1.507640542268223,0.09282349050045013,0.1061718240380287,0.2502813339233398,-0.003888571634888649,-0.03464227914810181,0.02763348817825317,XArbitraryZVertical,0.6860219393616593,-0.01986619381412513,-0.03923501169975957,0.7262504144370049,0.02497649379074574,-0.9980063438415527,-0.05795846506953239,65662.82436754167,unknown,2,2020-03-11 14:13:20.361 +0100,605625226.040729,0,44257.92,100.1227
2020-03-11 14:13:46.528 +0100,65688.99204925001,0.0681610107421875,-1.073898315429688,-0.036590576171875,65688.98702425,-0.4499256607617589,0.3670758920970885,1.508924168374368,-0.05349938571453094,0.04832978546619415,0.2935346662998199,0.05672847852110863,-0.06953537464141846,0.01585096120834351,XArbitraryZVertical,0.6860908535675485,-0.02058163359732577,-0.03795734088615003,0.7262333225985688,0.02219023182988167,-0.9980865120887756,-0.05771147459745407,65662.82436754167,unknown,2,2020-03-11 14:13:20.361 +0100,605625226.040729,0,44257.92,100.1227
2020-03-11 14:13:46.538 +0100,65689.00209925001,-0.000152587890625,-1.04595947265625,-0.0331878662109375,65688.99707425,-0.4035217383442172,0.3214141613002276,1.509066777796464,-0.09866046905517578,0.08394636958837509,0.2239081710577011,0.04867357388138771,-0.0758131742477417,0.02194762229919434,XArbitraryZVertical,0.6857720192328596,-0.0212704159968524,-0.03674460889244435,0.7265768813392735,0.019487664103508,-0.9980953335762024,-0.05852861329913139,65662.82436754167,unknown,2,2020-03-11 14:13:20.361 +0100,605625226.040729,0,44257.92,100.1227
2020-03-11 14:13:46.548 +0100,65689.01214925,0.0037078857421875,-1.04461669921875,-0.050018310546875,65689.00712425,-0.3649780547415396,0.2838018394703143,1.509053665353729,-0.04736410453915596,0.07936979085206985,0.2442794293165207,-0.01742940023541451,-0.0478750467300415,0.02605533599853516,XArbitraryZVertical,0.68550073531642,-0.02172221063953323,-0.03563502262892192,0.7268747741963152,0.01727701537311077,-0.9980944991111755,-0.05923377349972725,65662.82436754167,unknown,2,2020-03-11 14:13:20.361 +0100,605625226.040729,0,44257.92,100.1227
2020-03-11 14:13:46.558 +0100,65689.02219925,-0.004302978515625,-1.052352905273438,-0.064544677734375,65689.01717425001,-0.3195567237312421,0.2391368411005477,1.50951269876774,-0.015408038161695,0.06489470601081848,0.305617094039917,-0.01079823635518551,-0.04650408029556274,0.009491443634033203,XArbitraryZVertical,0.6853804478012568,-0.02243872269461423,-0.03438483665209815,0.7270266066658048,0.01450629252940416,-0.9981227517127991,-0.05950029194355011,65662.82436754167,unknown,2,2020-03-11 14:13:20.361 +0100,605625226.040729,0,44257.92,100.1227
2020-03-11 14:13:46.568 +0100,65689.03224825001,0.0038299560546875,-1.058120727539062,-0.0684356689453125,65689.02722325,-0.2746974222984119,0.19495129045055,1.510002514779277,-0.02450834400951862,0.05229021981358528,0.2412507683038712,-0.01607191748917103,-0.05421048402786255,-0.0049324631690979,XArbitraryZVertical,0.68531864874054,-0.02317409346485549,-0.03317412086952823,0.7271180105530687,0.01176908612251282,-0.9981526136398315,-0.05960262194275856,65662.82436754167,unknown,2,2020-03-11 14:13:20.361 +0100,605625226.040729,0,44257.92,100.1227
2020-03-11 14:13:46.578 +0100,65689.04229825,0.0137939453125,-1.054443359375,-0.06512451171875,65689.03727325001,-0.2411956406514529,0.1618705214632837,1.510042029656825,-0.04477420076727867,0.02174216136336327,0.1794345527887344,-0.005954816937446594,-0.05997562408447266,-0.008506357669830322,XArbitraryZVertical,0.6851839377174522,-0.02372669462908756,-0.03232424399528674,0.7272653921792966,0.009784897789359093,-0.9981549978256226,-0.05992003157734871,65662.82436754167,unknown,2,2020-03-11 14:13:20.361 +0100,605625226.040729,0,44257.92,100.1227
2020-03-11 14:13:46.589 +0100,65689.05234825,-0.0059356689453125,-1.045822143554688,-0.062744140625,65689.04732325001,-0.2157444565806091,0.1366661010300945,1.50983691730911,-0.05047640949487686,0.02259653061628342,0.1324181705713272,0.005494233220815659,-0.05631095170974731,-0.004763007164001465,XArbitraryZVertical,0.6850110996835963,-0.02416085161933801,-0.03171554469895572,0.7274407683493506,0.008299822919070721,-0.9981425404548645,-0.06035209447145462,65662.82436754167,unknown,2,2020-03-11 14:13:20.361 +0100,605625226.040729,0,44257.92,100.1227
2020-03-11 14:13:46.599 +0100,65689.06239725,-0.0300750732421875,-1.041549682617188,-0.0664825439453125,65689.05737325001,-0.1988178468816646,0.1199786448509059,1.509490067294162,-0.05387406796216965,0.01825984194874763,0.06739762425422668,-0.01326846331357956,-0.0477110743522644,-0.001909792423248291,XArbitraryZVertical,0.6848295908075526,-0.02441397186188215,-0.03129329730769663,0.727621430060914,0.007332893554121256,-0.9981213808059692,-0.06082477793097496,65662.82436754167,unknown,2,2020-03-11 14:13:20.361 +0100,605625226.040729,0,44257.92,100.1227
2020-03-11 14:13:46.609 +0100,65689.07244725,-0.0359954833984375,-1.038055419921875,-0.0699005126953125,65689.06742225001,-0.1907662488190804,0.1120977336318185,1.509113126993176,-0.03570235148072243,0.01148163806647062,0.0508359894156456,-0.03697048500180244,-0.04346179962158203,-0.005217432975769043,XArbitraryZVertical,0.6846691181088004,-0.02450391754773111,-0.0310824296436392,0.7277784886180363,0.006895511411130428,-0.9980981945991516,-0.06125551462173462,65662.82436754167,unknown,2,2020-03-11 14:13:20.361 +0100,605625226.040729,0,44257.92,100.1227
2020-03-11 14:13:46.619 +0100,65689.08249725,-0.032806396484375,-1.026214599609375,-0.069732666015625,65689.07747225001,-0.1810231009346107,0.1024231404821955,1.508996310471702,-0.0064512575045228,-0.001977977342903614,0.08122052997350693,-0.04230986535549164,-0.03997457027435303,-0.008455991744995117,XArbitraryZVertical,0.6845970958881172,-0.02468327142636904,-0.03085457426385251,0.7278498616283385,0.006314472295343876,-0.9980909824371338,-0.06143510341644287,65662.82436754167,unknown,2,2020-03-11 14:13:20.361 +0100,605625226.040729,0,44257.92,100.1227
2020-03-11 14:13:46.629 +0100,65689.09254725001,-0.0266571044921875,-1.015045166015625,-0.0736083984375,65689.08752225,-0.167115150125146,0.08851135298248522,1.509120307308106,0.009870362468063831,-0.007131624966859818,0.08770623058080673,-0.03825459629297256,-0.02812588214874268,-0.008329689502716064,XArbitraryZVertical,0.6846010206638089,-0.02499137286542546,-0.03054928771248173,0.727848534975628,0.005448278971016407,-0.998098611831665,-0.06139374896883965,65662.82436754167,unknown,2,2020-03-11 14:13:20.361 +0100,605625226.040729,0,44257.92,100.1227
2020-03-11 14:13:46.639 +0100,65689.10259625,-0.0123443603515625,-1.020126342773438,-0.073577880859375,65689.09757225,-0.1525259011029997,0.07391091427356754,1.509391647968143,0.02237150818109512,0.001477575860917568,0.0939801037311554,-0.03118840046226978,-0.01693969964981079,-0.01240235567092896,XArbitraryZVertical,0.6846607779035769,-0.0253221432843364,-0.03022664285909142,0.7277943694214061,0.004531367216259241,-0.9981153011322021,-0.06119681522250175,65662.82436754167,unknown,2,2020-03-11 14:13:20.361 +0100,605625226.040729,0,44257.92,100.1227
2020-03-11 14:13:46.649 +0100,65689.11264625001,0.002105712890625,-1.013092041015625,-0.07598876953125,65689.10762125,-0.1379361796659609,0.0593482918726014,1.509727135861278,0.03458402305841446,0.0008369535207748413,0.08475621044635773,-0.01596422307193279,-0.02200037240982056,-0.01264560222625732,XArbitraryZVertical,0.684748970469252,-0.0256389440044093,-0.02989093494715483,0.727714210159132,0.003619926050305367,-0.9981358647346497,-0.06092298403382301,65662.82436754167,unknown,2,2020-03-11 14:13:20.361 +0100,605625226.040729,0,44257.92,100.1227
2020-03-11 14:13:46.680 +0100,65689.12269625001,0.0054473876953125,-1.009918212890625,-0.07086181640625,65689.11767125,-0.1262732678187662,0.04774954121000131,1.510102095417739,0.02913439646363258,0.00922724325209856,0.05706199631094933,-0.0007893703877925873,-0.01494306325912476,-0.01539397239685059,XArbitraryZVertical,0.6848631151922626,-0.02587804099373503,-0.02960692042615094,0.7276098757472373,0.002895139157772064,-0.9981586933135986,-0.06058568134903908,65662.82436754167,unknown,2,2020-03-11 14:13:20.361 +0100,605625226.040729,0,44257.92,100.1227
2020-03-11 14:13:46.681 +0100,65689.13274625,-0.013702392578125,-1.007247924804688,-0.058624267578125,65689.12772125,-0.1183967095038304,0.04007575118401648,1.510277172981908,-0.003880620468407869,0.02827795781195164,0.04150068014860153,0.00302431546151638,-0.01175850629806519,-0.01042181253433228,XArbitraryZVertical,0.684915771839488,-0.02597767014000062,-0.02936425866552725,0.7275665751924629,0.00242311879992485,-0.9981693029403687,-0.0604310929775238,65662.82436754167,unknown,2,2020-03-11 14:13:20.361 +0100,605625226.040729,0,44257.92,100.1227
2020-03-11 14:13:46.682 +0100,65689.14279525001,-0.012481689453125,-0.996612548828125,-0.0528717041015625,65689.13777125001,-0.1163986427865722,0.03844946020289076,1.509959500929309,-0.06583799421787262,0.04845912754535675,-0.02161357365548611,-0.01603942364454269,-0.009107530117034912,0.002137899398803711,XArbitraryZVertical,0.684802034698161,-0.02587614200406309,-0.02920287627280115,0.7276838012706208,0.002337079495191574,-0.9981499910354614,-0.06075319647789001,65662.82436754167,unknown,2,2020-03-11 14:13:20.361 +0100,605625226.040729,0,44257.92,100.1227
2020-03-11 14:13:46.689 +0100,65689.15284525001,-0.0066680908203125,-1.011093139648438,-0.05499267578125,65689.14782025,-0.1226591395777761,0.04522523401133287,1.509130732060475,-0.08656226098537445,0.06507870554924011,-0.06523994356393814,-0.01526770554482937,0.00147712230682373,0.008699536323547363,XArbitraryZVertical,0.6845196048890897,-0.02552956581563979,-0.02918484670955025,0.7279624422686028,0.002786069409921765,-0.9980992674827576,-0.06156230345368385,65662.82436754167,unknown,2,2020-03-11 14:13:20.361 +0100,605625226.040729,0,44257.92,100.1227
2020-03-11 14:13:46.699 +0100,65689.16289525,-0.0075531005859375,-0.99981689453125,-0.0618133544921875,65689.15787025,-0.1337852718714197,0.05710568504167911,1.508228574530387,-0.08284448087215424,0.08912651240825653,-0.08576865494251251,-0.01023663580417633,-0.01305943727493286,0.007439494132995605,XArbitraryZVertical,0.6842252745999899,-0.02498272750765105,-0.02919822066216146,0.728257498855749,0.003568603890016675,-0.9980432987213135,-0.06242327392101288,65662.82436754167,unknown,2,2020-03-11 14:13:20.361 +0100,605625226.040729,0,44257.92,100.1227
2020-03-11 14:13:46.709 +0100,65689.17294525,0.006134033203125,-0.9766387939453125,-0.0710296630859375,65689.16792025001,-0.1462443666278507,0.07046317381305496,1.507386063659967,-0.0758393332362175,0.08787292242050171,-0.07919400930404663,-0.01201425865292549,-0.001836299896240234,0.001403629779815674,XArbitraryZVertical,0.6839613282630003,-0.02434897207232918,-0.02919681686905326,0.7285268747479727,0.004461226053535938,-0.9979902505874634,-0.06320805847644806,65662.82436754167,unknown,2,2020-03-11 14:13:20.361 +0100,605625226.040729,0,44257.92,100.1227
2020-03-11 14:13:46.719 +0100,65689.18299425,-0.0097198486328125,-0.951904296875,-0.0744171142578125,65689.17797025001,-0.1509247017854022,0.07588470195874643,1.506698437336662,-0.04399564489722252,0.06384055316448212,0.006022348068654537,0.001278182491660118,0.0212978720664978,-0.00715261697769165,XArbitraryZVertical,0.6837342814088118,-0.02394688087692482,-0.02907481627194478,0.7287582020515316,0.004855925682932138,-0.9979464411735535,-0.0638679563999176,65662.82436754167,unknown,2,2020-03-11 14:13:20.361 +0100,605625226.040729,0,44257.92,100.1227
2020-03-11 14:13:46.729 +0100,65689.19304425,-0.0128021240234375,-0.9481964111328125,-0.0842132568359375,65689.18801925001,-0.1436269577081818,0.06908459118083797,1.506796707469076,0.06455622613430023,0.03697080910205841,0.0673680305480957,-0.0141346137970686,0.04603862762451172,-0.01060497760772705,XArbitraryZVertical,0.6837584791623839,-0.02393353913648363,-0.02873671054210158,0.7287494132063085,0.00441483361646533,-0.9979526996612549,-0.0638030543923378,65662.82436754167,unknown,2,2020-03-11 14:13:20.361 +0100,605625226.040729,0,44257.92,100.1227
2020-03-11 14:13:46.739 +0100,65689.20309425,-0.0082855224609375,-0.9581451416015625,-0.096099853515625,65689.19806925001,-0.1372545586525536,0.06286564271684299,1.507962710561245,0.1615141928195953,-0.01767139509320259,0.02448714151978493,-0.01674673892557621,0.0498204231262207,-0.02153909206390381,XArbitraryZVertical,0.6841698890011243,-0.02406284608655658,-0.02850015602998349,0.7283680881045386,0.003944678697735071,-0.9980266094207764,-0.06266508251428604,65662.82436754167,unknown,2,2020-03-11 14:13:20.361 +0100,605625226.040729,0,44257.92,100.1227
2020-03-11 14:13:46.749 +0100,65689.21314425001,-0.0170135498046875,-0.97772216796875,-0.0800018310546875,65689.20811925,-0.1371970283310734,0.06255161358881903,1.509680286454498,0.1646409779787064,-0.02298158966004848,0.006758079864084721,-0.01210339367389679,0.03997796773910522,-0.03513360023498535,XArbitraryZVertical,0.6847882609869228,-0.02421865138710066,-0.02852682405271796,0.7277806078306879,0.003817938733845949,-0.9981330037117004,-0.06095698848366737,65662.82436754167,unknown,2,2020-03-11 14:13:20.361 +0100,605625226.040729,0,44257.92,100.1227
2020-03-11 14:13:46.759 +0100,65689.22319325,-0.0687713623046875,-0.879608154296875,0.0069580078125,65689.21816825001,-0.1478220913005247,0.07376513132397546,1.510511574851126,-0.05423197895288467,0.2218870222568512,-0.1701485216617584,-0.02145344950258732,0.02045154571533203,-0.01991128921508789,XArbitraryZVertical,0.6851221799026913,-0.0238091557395463,-0.02852143685338908,0.7274799380139881,0.004439971875399351,-0.9981834292411804,-0.06008144468069077,65662.82436754167,unknown,2,2020-03-11 14:13:20.361 +0100,605625226.040729,0,44257.92,100.1227
2020-03-11 14:13:46.769 +0100,65689.23324325,-0.0805511474609375,-0.9333953857421875,-0.06439208984375,65689.22821825001,-0.1986535818865823,0.1278058655933169,1.50715468132873,-0.4291088581085205,0.3771249949932098,-0.4474686682224274,-0.07687711715698242,0.1183576583862305,0.07004469633102417,XArbitraryZVertical,0.6841084316014925,-0.0213748578668886,-0.02868633786456403,0.7285023653277427,0.008105861954391003,-0.9979755282402039,-0.06307753920555115,65662.82436754167,unknown,2,2020-03-11 14:13:20.361 +0100,605625226.040729,0,44257.92,100.1227
2020-03-11 14:13:46.779 +0100,65689.24329325001,0.031768798828125,-1.1259765625,-0.0615997314453125,65689.23826825,-0.2570511012010767,0.1893134482263984,1.503566314983433,-0.2213665693998337,0.3397733569145203,-0.367175430059433,-0.09319297969341278,0.06433576345443726,0.001595377922058105,XArbitraryZVertical,0.683126783255786,-0.01867086115895664,-0.0291907188626704,0.7294772409442039,0.01264198683202267,-0.9977409243583679,-0.06597839295864105,65662.82436754167,unknown,2,2020-03-11 14:13:20.361 +0100,605625226.040729,0,44257.92,100.1227
2020-03-11 14:13:46.789 +0100,65689.25334325001,0.0386199951171875,-0.9160308837890625,-0.0079803466796875,65689.24831825,-0.2922769593116553,0.2275244975198868,1.499158744817839,-0.5977435708045959,0.2818906009197235,-0.3547283709049225,0.01562422513961792,-0.1285510063171387,0.008138775825500488,XArbitraryZVertical,0.6818117696689673,-0.01636756731642733,-0.0293820715752303,0.7307539586914805,0.01614475436508656,-0.9974351525306702,-0.06972962617874146,65662.82436754167,unknown,2,2020-03-11 14:13:20.361 +0100,605625226.040729,0,44257.92,100.1227
2020-03-11 14:13:46.799 +0100,65689.26339225001,0.1054840087890625,-1.018417358398438,-0.0900115966796875,65689.25836725,-0.3190018608396933,0.257206665915026,1.491829433904893,-0.5728251338005066,0.2785067856311798,-0.3222620487213135,0.01855380274355412,0.08084321022033691,0.06831717491149902,XArbitraryZVertical,0.679457541603158,-0.01389684345470041,-0.02975801216211221,0.7329793172616096,0.02006641402840614,-0.996883749961853,-0.07628865540027618,65662.82436754167,unknown,2,2020-03-11 14:13:20.361 +0100,605625226.040729,0,44257.92,100.1227
2020-03-11 14:13:46.809 +0100,65689.27344225001,0.1082763671875,-1.042129516601562,-0.100433349609375,65689.26841725,-0.3258216238735137,0.2655839559516601,1.48838318894174,-0.1156029552221298,0.0568900853395462,0.007721578702330589,0.08387798815965652,-0.02182084321975708,-0.0105709433555603,XArbitraryZVertical,0.678321825908706,-0.01278755602299347,-0.02976439394136342,0.7340503381039711,0.02160625718533993,-0.9966059327125549,-0.07943195849657059,65662.82436754167,unknown,2,2020-03-11 14:13:20.361 +0100,605625226.040729,0,44257.92,100.1227
2020-03-11 14:13:46.819 +0100,65689.28349225,0.011993408203125,-0.9198150634765625,-0.0556640625,65689.27846725,-0.3177166288630766,0.2577168057646739,1.487607658916432,-0.09239403903484344,0.007753434590995312,0.02945457212626934,0.08709864318370819,-0.04559731483459473,-0.02007663249969482,XArbitraryZVertical,0.6779830272435161,-0.01284815723544376,-0.02953510179464241,0.7343715362345049,0.02117795310914516,-0.9965417981147766,-0.08034788072109222,65662.82436754167,unknown,2,2020-03-11 14:13:20.361 +0100,605625226.040729,0,44257.92,100.1227
2020-03-11 14:13:46.830 +0100,65689.29354225,-0.0101470947265625,-0.93560791015625,-0.0645904541015625,65689.28851725001,-0.3159363799879988,0.2562092985618434,1.486729876523175,-0.06340322643518448,0.04598821699619293,-0.04454059153795242,-0.009284690022468567,0.07664394378662109,0.02556997537612915,XArbitraryZVertical,0.6776619957361932,-0.0127103970310247,-0.02947950708079976,0.7346723811440297,0.02127832733094692,-0.9964684844017029,-0.08122532814741135,65662.82436754167,unknown,2,2020-03-11 14:13:20.361 +0100,605625226.040729,0,44257.92,100.1227
2020-03-11 14:13:46.840 +0100,65689.30359125001,0.01104736328125,-0.960784912109375,-0.067230224609375,65689.29856625,-0.3183793096362303,0.2590190697101862,1.486423514452939,0.009356734342873096,0.02565045282244682,-0.009301646612584591,-0.03173175454139709,0.06082528829574585,0.01687943935394287,XArbitraryZVertical,0.6775793509463635,-0.01247497793374208,-0.0294555640607937,0.7347536557094803,0.02158489264547825,-0.9964427351951599,-0.08146119862794876,65662.82436754167,unknown,2,2020-03-11 14:13:20.361 +0100,605625226.040729,0,44257.92,100.1227
2020-03-11 14:13:46.850 +0100,65689.31364125,0.0147857666015625,-0.967437744140625,-0.058197021484375,65689.30861625001,-0.3152179208544147,0.2559558212452762,1.486811550455922,0.02349711209535599,-0.003942696377635002,0.0437948927283287,-0.01018977724015713,0.03568089008331299,0.01393133401870728,XArbitraryZVertical,0.6776913731172479,-0.01256812328976351,-0.02929345632729081,0.7346552303176476,0.02123736962676048,-0.9964753389358521,-0.08115289360284805,65662.82436754167,unknown,2,2020-03-11 14:13:20.361 +0100,605625226.040729,0,44257.92,100.1227
2020-03-11 14:13:46.860 +0100,65689.32369125,0.017059326171875,-0.9861297607421875,-0.0509185791015625,65689.31866625001,-0.3084266536437096,0.2491074746200368,1.48712528429992,0.003410219214856625,-0.008373930118978024,0.05349598824977875,-0.005817707628011703,0.02905452251434326,0.02280360460281372,XArbitraryZVertical,0.6777460943957014,-0.01281351077770161,-0.02908871236267351,0.7346085585599432,0.02060369215905666,-0.996501624584198,-0.08099208772182465,65662.82436754167,unknown,2,2020-03-11 14:13:20.361 +0100,605625226.040729,0,44257.92,100.1227
2020-03-11 14:13:46.870 +0100,65689.33374025,0.0184173583984375,-1.017196655273438,-0.052520751953125,65689.32871625001,-0.3025463968235064,0.2431491754322339,1.487149950494697,-0.03085391595959663,-0.0100637786090374,0.04772914946079254,-0.003055352717638016,0.0103645920753479,0.03017973899841309,XArbitraryZVertical,0.6777062730392464,-0.0130118308739263,-0.0289455152093671,0.7346474811125724,0.02011489681899548,-0.9965037107467651,-0.0810898020863533,65662.82436754167,unknown,2,2020-03-11 14:13:20.361 +0100,605625226.040729,0,44257.92,100.1227
2020-03-11 14:13:46.880 +0100,65689.343789875,0.015869140625,-1.036529541015625,-0.0559844970703125,65689.33876487501,-0.2964844520802014,0.2370379131586701,1.486831809296351,-0.07288073003292084,-0.004418943077325821,0.04281748086214066,-0.001275978982448578,-0.0207289457321167,0.02900773286819458,XArbitraryZVertical,0.6775444641751801,-0.01317284753278948,-0.0288190199014218,0.7347988552137751,0.01969354785978794,-0.9964770674705505,-0.0815199539065361,65662.82436754167,unknown,2,2020-03-11 14:13:20.361 +0100,605625226.040729,0,44257.92,100.1227
2020-03-11 14:13:46.890 +0100,65689.35383987501,0.0143280029296875,-1.029998779296875,-0.0509185791015625,65689.348814875,-0.2901728983066981,0.2307202825607245,1.485885430746718,-0.133422389626503,-0.0008517131209373474,0.04210485145449638,-0.003524547442793846,-0.04014182090759277,0.02658540010452271,XArbitraryZVertical,0.6771582623375485,-0.01326935806113592,-0.02872594061013766,0.73515671376863,0.01939390040934086,-0.9963972568511963,-0.08256122469902039,65662.82436754167,unknown,2,2020-03-11 14:13:20.361 +0100,605625226.040729,0,44257.92,100.1227
2020-03-11 14:13:46.900 +0100,65689.36388987501,0.0126800537109375,-1.017562866210938,-0.0520477294921875,65689.358864875,-0.2828327741168609,0.2234314648280475,1.484362858676604,-0.1848783940076828,0.001243395730853081,0.03966113552451134,-0.00479937344789505,-0.03374117612838745,0.03326886892318726,XArbitraryZVertical,0.6765595922822341,-0.01332826878946968,-0.02862946222445088,0.7357103511182462,0.01912758313119411,-0.9962669610977173,-0.08417895436286926,65662.82436754167,unknown,2,2020-03-11 14:13:20.361 +0100,605625226.040729,0,44257.92,100.1227
2020-03-11 14:13:46.910 +0100,65689.37393887501,0.0101318359375,-1.019851684570312,-0.055419921875,65689.368914875,-0.2741947674483919,0.2148327194840101,1.482522092692082,-0.2088145166635513,-0.0001175533980131149,0.02457562461495399,-0.006113559007644653,-0.02146565914154053,0.0340917706489563,XArbitraryZVertical,0.6758361916239212,-0.01341141860745466,-0.02851693558332709,0.7363777394421289,0.01879381388425827,-0.9961063861846924,-0.08613115549087524,65662.82436754167,unknown,2,2020-03-11 14:13:20.361 +0100,605625226.040729,0,44257.92,100.1227
2020-03-11 14:13:46.920 +0100,65689.38398887501,0.01043701171875,-1.0235595703125,-0.0706787109375,65689.378963875,-0.2664798263125225,0.2071063648865872,1.480537962224966,-0.2022916376590729,-0.007548038847744465,0.01488438248634338,-0.008402412757277489,-0.02393138408660889,0.03279757499694824,XArbitraryZVertical,0.6750656158460805,-0.01348390391177949,-0.02845058865885219,0.7370855550714233,0.01853444613516331,-0.995929479598999,-0.08820919692516327,65662.82436754167,unknown,2,2020-03-11 14:13:20.361 +0100,605625226.040729,0,44257.92,100.1227
2020-03-11 14:13:46.930 +0100,65689.39403887501,0.0103302001953125,-1.022354125976562,-0.0728759765625,65689.389013875,-0.2607485746561777,0.2012905589570596,1.478825469686654,-0.15269935131073,-0.01390166115015745,0.01065142173320055,-0.007924577221274376,-0.02779477834701538,0.01931416988372803,XArbitraryZVertical,0.6744062894493036,-0.01355377071710914,-0.02843885371679659,0.7376879258334236,0.01836177706718445,-0.9957736730575562,-0.08998490124940872,65662.82436754167,unknown,2,2020-03-11 14:13:20.361 +0100,605625226.040729,0,44257.92,100.1227
2020-03-11 14:13:46.940 +0100,65689.404088875,0.009307861328125,-1.01983642578125,-0.07916259765625,65689.39906387501,-0.2580037310224478,0.1983773041323231,1.477761345561367,-0.07551535218954086,-0.02326134033501148,-0.002011110074818134,-0.007978148758411407,-0.02668774127960205,0.01820981502532959,XArbitraryZVertical,0.6739998127102182,-0.0136171442976041,-0.02849331172600739,0.7380561188387967,0.01830854080617428,-0.9956753849983215,-0.09107764810323715,65662.82436754167,unknown,2,2020-03-11 14:13:20.361 +0100,605625226.040729,0,44257.92,100.1227
2020-03-11 14:13:46.950 +0100,65689.41413787501,0.00921630859375,-1.022384643554688,-0.079742431640625,65689.40911387501,-0.2575103515740926,0.1975927511060599,1.477467913383062,-0.003407852724194527,-0.03640559315681458,0.0006527500227093697,-0.008986398577690125,-0.02419734001159668,0.01222413778305054,XArbitraryZVertical,0.6738861652569245,-0.01371686480055855,-0.02859887351117796,0.7381539652986663,0.01829445362091064,-0.9956480860710144,-0.09137856960296631,65662.82436754167,unknown,2,2020-03-11 14:13:20.361 +0100,605625226.040729,0,44257.92,100.1227
2020-03-11 14:13:46.960 +0100,65689.424187875,0.0016021728515625,-1.0274658203125,-0.0753173828125,65689.419162875,-0.2578574945592062,0.1974991949049431,1.477752235612326,0.04073643684387207,-0.05168574675917625,0.003967054188251495,-0.009013652801513672,-0.02671897411346436,0.01136720180511475,XArbitraryZVertical,0.6739853176634653,-0.01389127654173826,-0.02873593364099868,0.7380547741697149,0.01823014952242374,-0.9956744909286499,-0.09110164642333984,65662.82436754167,unknown,2,2020-03-11 14:13:20.361 +0100,605625226.040729,0,44257.92,100.1227
2020-03-11 14:13:46.970 +0100,65689.434237875,-0.00299072265625,-1.03582763671875,-0.0706939697265625,65689.42921287501,-0.2586008421645845,0.1977157036111813,1.478221564628117,0.03363338857889175,-0.05282150954008102,0.0003690235316753387,-0.01655586436390877,-0.03175663948059082,0.01533079147338867,XArbitraryZVertical,0.6741521263049139,-0.01409953067949483,-0.02890007260231759,0.7378921035444592,0.01815822534263134,-0.9957180023193359,-0.09064022451639175,65662.82436754167,unknown,2,2020-03-11 14:13:20.361 +0100,605625226.040729,0,44257.92,100.1227
2020-03-11 14:13:46.980 +0100,65689.444287875,-0.002410888671875,-1.036956787109375,-0.0644378662109375,65689.43926287501,-0.259136493471488,0.1977258166027477,1.478492193482377,-0.001157348044216633,-0.0517360046505928,-0.00208720937371254,-0.02109695598483086,-0.04009366035461426,0.0196911096572876,XArbitraryZVertical,0.6742455845354407,-0.01429801950721317,-0.02907284530153689,0.7377961768429574,0.01810642704367638,-0.9957429766654968,-0.09037691354751587,65662.82436754167,unknown,2,2020-03-11 14:13:20.361 +0100,605625226.040729,0,44257.92,100.1227
2020-03-11 14:13:46.990 +0100,65689.454336875,-0.00335693359375,-1.032424926757812,-0.0643157958984375,65689.44931187501,-0.2594809872265981,0.1975656989040803,1.478285634925333,-0.0525822676718235,-0.0492221899330616,-0.01508629880845547,-0.02054279670119286,-0.04124164581298828,0.02615046501159668,XArbitraryZVertical,0.6741667687952002,-0.01445671241212681,-0.02927026205929307,0.737857218276712,0.01813209615647793,-0.9957239627838135,-0.09058034420013428,65662.82436754167,unknown,2,2020-03-11 14:13:20.361 +0100,605625226.040729,0,44257.92,100.1227
2020-03-11 14:13:47.000 +0100,65689.464386875,0.0013885498046875,-1.018142700195312,-0.064239501953125,65689.45936187501,-0.2600500285901202,0.197673665327681,1.477600530901229,-0.09019701927900314,-0.04425938799977303,-0.02196471020579338,-0.02163263782858849,-0.0367732048034668,0.0269395112991333,XArbitraryZVertical,0.6739172438388554,-0.01455342600804336,-0.02949835993962857,0.7380741617876467,0.01827589236199856,-0.9956604242324829,-0.09124749153852463,65662.82436754167,unknown,2,2020-03-11 14:13:20.361 +0100,605625226.040729,0,44257.92,100.1227
2020-03-11 14:13:47.010 +0100,65689.47443687501,0.0039825439453125,-1.007095336914062,-0.06781005859375,65689.469411875,-0.2596472962618155,0.196788268548496,1.476541234912524,-0.1239646300673485,-0.05035845562815666,-0.01367325894534588,-0.01701245084404945,-0.02259021997451782,0.02806586027145386,XArbitraryZVertical,0.6735253568526798,-0.01465933364662374,-0.02973213321761787,0.7384202835042408,0.01840119250118732,-0.9955613017082214,-0.09229739755392075,65662.82436754167,unknown,2,2020-03-11 14:13:20.361 +0100,605625226.040729,0,44257.92,100.1227
2020-03-11 14:13:47.021 +0100,65689.484485875,0.0073394775390625,-1.005615234375,-0.0764312744140625,65689.479461875,-0.2584826580372736,0.1951161746984012,1.475266564960904,-0.1282813400030136,-0.0540543906390667,-0.01626957580447197,-0.01451019197702408,-0.01166385412216187,0.0257713794708252,XArbitraryZVertical,0.6730489152664958,-0.01478254953363385,-0.02996579442175153,0.7388427030481173,0.0184929333627224,-0.9954404830932617,-0.09357326477766037,65662.82436754167,unknown,2,2020-03-11 14:13:20.361 +0100,605625226.040729,0,44257.92,100.1227
2020-03-11 14:13:47.031 +0100,65689.494535875,0.0076751708984375,-0.9958038330078125,-0.084991455078125,65689.48951087501,-0.2577366206750291,0.1937959624657614,1.474073319351343,-0.1104212924838066,-0.06208247691392899,-0.017351184040308,-0.01125845685601234,-0.01029825210571289,0.01833999156951904,XArbitraryZVertical,0.6726036656496613,-0.0149242254772934,-0.0302281554814914,0.7392345319497314,0.01859812997281551,-0.9953259825706482,-0.09476315230131149,65662.82436754167,unknown,2,2020-03-11 14:13:20.361 +0100,605625226.040729,0,44257.92,100.1227
2020-03-11 14:13:47.041 +0100,65689.50458587501,0.003173828125,-0.9858856201171875,-0.094329833984375,65689.499560875,-0.2576188559017856,0.1930186882479574,1.47313023832416,-0.07588249444961548,-0.0665653795003891,-0.02059038728475571,-0.0110292062163353,-0.0005785226821899414,0.01071590185165405,XArbitraryZVertical,0.672251846818022,-0.01509695511171243,-0.03051992392268853,0.739539018247616,0.01870457641780376,-0.9952344298362732,-0.09569907188415527,65662.82436754167,unknown,2,2020-03-11 14:13:20.361 +0100,605625226.040729,0,44257.92,100.1227
2020-03-11 14:13:47.051 +0100,65689.51463587501,0.0012359619140625,-0.9884490966796875,-0.093109130859375,65689.509610875,-0.2587387390607706,0.1934729800144538,1.472582357165131,-0.03718794137239456,-0.06312297284603119,-0.02568840980529785,-0.01567891985177994,0.009286284446716309,0.00190424919128418,XArbitraryZVertical,0.6720521551714942,-0.01526167874128913,-0.03082440189760995,0.7397045094079087,0.01885294541716576,-0.9951809048652649,-0.09622596204280853,65662.82436754167,unknown,2,2020-03-11 14:13:20.361 +0100,605625226.040729,0,44257.92,100.1227
2020-03-11 14:13:47.061 +0100,65689.52468487501,0.0007781982421875,-0.9987030029296875,-0.0912628173828125,65689.519660875,-0.2606655488602936,0.1947412596250969,1.472261765818292,-0.02820696122944355,-0.06157487630844116,-0.03096280060708523,-0.0178004577755928,0.006691455841064453,0.003413379192352295,XArbitraryZVertical,0.6719413232444192,-0.0154143808665258,-0.0311361962243235,0.7397889308577892,0.01903661713004112,-0.9951493740081787,-0.0965145081281662,65662.82436754167,unknown,2,2020-03-11 14:13:20.361 +0100,605625226.040729,0,44257.92,100.1227
2020-03-11 14:13:47.071 +0100,65689.53473487501,-0.001007080078125,-1.000442504882812,-0.086883544921875,65689.529709875,-0.2626653555323167,0.1961645757396479,1.471849213323526,-0.05660683661699295,-0.05036944895982742,-0.03090354427695274,-0.01847556605935097,-0.003603100776672363,0.00563502311706543,XArbitraryZVertical,0.6717990759258153,-0.01552643603510687,-0.03143059183376349,0.739903307759774,0.01925396174192429,-0.9951087236404419,-0.09688986092805862,65662.82436754167,unknown,2,2020-03-11 14:13:20.361 +0100,605625226.040729,0,44257.92,100.1227
2020-03-11 14:13:47.081 +0100,65689.544784875,-0.0036468505859375,-1.000686645507812,-0.07452392578125,65689.539759875,-0.2639166683635301,0.1969648083815456,1.470992203448029,-0.1190710067749023,-0.03585042804479599,-0.03251821920275688,-0.02050508931279182,-0.00542759895324707,0.01083427667617798,XArbitraryZVertical,0.6714925758430673,-0.0155811710680879,-0.03169328581997778,0.7401690651317071,0.01949821040034294,-0.9950237274169922,-0.09770989418029785,65662.82436754167,unknown,2,2020-03-11 14:13:20.361 +0100,605625226.040729,0,44257.92,100.1227
2020-03-11 14:13:47.091 +0100,65689.554834875,0.0018768310546875,-1.009307861328125,-0.0685882568359375,65689.54980987501,-0.2643909503465958,0.1971462509731935,1.469461512581256,-0.1903708577156067,-0.0240539126098156,-0.04203426092863083,-0.02346104755997658,-0.005825638771057129,0.02468478679656982,XArbitraryZVertical,0.6709380985121601,-0.01554863411406138,-0.03193064816854822,0.74066226535167,0.01981440372765064,-0.9948700070381165,-0.09920061379671097,65662.82436754167,unknown,2,2020-03-11 14:13:20.361 +0100,605625226.040729,0,44257.92,100.1227
2020-03-11 14:13:47.101 +0100,65689.56488387501,0.0059051513671875,-1.007308959960938,-0.076751708984375,65689.559858875,-0.264224011154315,0.1967980915341097,1.46722261892333,-0.2500794529914856,-0.00712978933006525,-0.04696457087993622,-0.01833834685385227,-0.01467567682266235,0.03281158208847046,XArbitraryZVertical,0.6701236287667883,-0.01543956028454854,-0.03216488414067097,0.7413914170421817,0.02021538279950619,-0.9946410655975342,-0.1013918817043304,65662.82436754167,unknown,2,2020-03-11 14:13:20.361 +0100,605625226.040729,0,44257.92,100.1227
2020-03-11 14:13:47.111 +0100,65689.574933875,0.0092315673828125,-0.9679107666015625,-0.0515289306640625,65689.569908875,-0.2638360129566369,0.1964069795626069,1.464667547188166,-0.2620090842247009,0.004321254789829254,-0.05065874010324478,-0.01476619392633438,-0.01294404268264771,0.02714782953262329,XArbitraryZVertical,0.6691947856307299,-0.01524720365726807,-0.0323562597132443,0.7422255532943582,0.02067155204713345,-0.994373619556427,-0.1038917228579521,65662.82436754167,unknown,2,2020-03-11 14:13:20.361 +0100,605625226.040729,0,44257.92,100.1227
2020-03-11 14:13:47.121 +0100,65689.584983875,0.0120697021484375,-0.9339752197265625,-0.04290771484375,65689.57995887501,-0.263380738071512,0.1960539519628049,1.461908973314176,-0.2888601422309875,0.01361808553338051,-0.05524284020066261,-0.01193750649690628,0.02615809440612793,0.05506867170333862,XArbitraryZVertical,0.6681915950124687,-0.0150022836258462,-0.03252545810694689,0.7431264642083434,0.02116928808391094,-0.9940776228904724,-0.1065898463129997,65662.82436754167,unknown,2,2020-03-11 14:13:20.361 +0100,605625226.040729,0,44257.92,100.1227
2020-03-11 14:13:47.131 +0100,65689.595033875,0.0062255859375,-0.9415130615234375,-0.049560546875,65689.59000887501,-0.2643992523859958,0.1972111760770009,1.459014389168121,-0.2698724865913391,0.01846418157219887,-0.08684650063514709,-0.009786397218704224,0.05977493524551392,0.06648647785186768,XArbitraryZVertical,0.6671516738333533,-0.01467694033517211,-0.03274913048717856,0.7440568815091799,0.02185631729662418,-0.9937589168548584,-0.1093864664435387,65662.82436754167,unknown,2,2020-03-11 14:13:20.361 +0100,605625226.040729,0,44257.92,100.1227
2020-03-11 14:13:47.141 +0100,65689.605082875,0.00408935546875,-0.9662628173828125,-0.047821044921875,65689.60005787501,-0.268531987346692,0.201532884515999,1.456272658143572,-0.2603783309459686,0.02453139424324036,-0.118010550737381,-0.01664812490344048,0.05192768573760986,0.06240600347518921,XArbitraryZVertical,0.6661968822367004,-0.01422071005244466,-0.03306840342476149,0.7449065307648091,0.02287393435835838,-0.993449330329895,-0.1119589731097221,65662.82436754167,unknown,2,2020-03-11 14:13:20.361 +0100,605625226.040729,0,44257.92,100.1227
2020-03-11 14:13:47.151 +0100,65689.615132875,0.0040283203125,-0.982147216796875,-0.0455322265625,65689.61010787501,-0.2732311866152557,0.2064774700267203,1.453363166199365,-0.3007006049156189,0.03134589269757271,-0.112078957259655,-0.019930399954319,0.0268409252166748,0.06686121225357056,XArbitraryZVertical,0.6651880680373344,-0.01369839365038963,-0.03341354024330433,0.7458020302138645,0.0240199975669384,-0.9931126236915588,-0.114674374461174,65662.82436754167,unknown,2,2020-03-11 14:13:20.361 +0100,605625226.040729,0,44257.92,100.1227
2020-03-11 14:13:47.172 +0100,65689.62518287501,0.008209228515625,-0.98370361328125,-0.0360260009765625,65689.620157875,-0.2761689403003674,0.2097145405549036,1.44986678431925,-0.3813765645027161,0.03106359764933586,-0.1115625724196434,-0.02108509466052055,0.01054090261459351,0.07246637344360352,XArbitraryZVertical,0.6639511386754551,-0.01316919618066722,-0.03372671092611571,0.746898803429877,0.0251136627048254,-0.9926969408988953,-0.1179909184575081,65662.82436754167,unknown,2,2020-03-11 14:13:20.361 +0100,605625226.040729,0,44257.92,100.1227
2020-03-11 14:13:47.173 +0100,65689.63523287501,0.0231475830078125,-0.9842529296875,-0.037994384765625,65689.630207875,-0.2775922297056226,0.2114384986536725,1.445609075850825,-0.4486094415187836,0.0289938896894455,-0.1095439270138741,-0.01799436658620834,0.008461952209472656,0.08606064319610596,XArbitraryZVertical,0.6624205442338054,-0.0126310925420265,-0.0340465871068269,0.7482514105407955,0.02620385214686394,-0.9921743273735046,-0.1220789551734924,65662.82436754167,unknown,2,2020-03-11 14:13:20.361 +0100,605625226.040729,0,44257.92,100.1227
2020-03-11 14:13:47.181 +0100,65689.645281875,0.0379486083984375,-0.9688873291015625,-0.033294677734375,65689.64025687501,-0.2782403083273124,0.2122592051249044,1.441004930119107,-0.467077910900116,0.004098127596080303,-0.1073279157280922,-0.004118204116821289,0.007327437400817871,0.08853453397750854,XArbitraryZVertical,0.660751004921431,-0.01214088185466099,-0.03440821061996262,0.7497176809677863,0.02726605162024498,-0.9915888905525208,-0.126521423459053,65662.82436754167,unknown,2,2020-03-11 14:13:20.361 +0100,605625226.040729,0,44257.92,100.1227
2020-03-11 14:13:47.191 +0100,65689.65533187501,0.0510406494140625,-0.96209716796875,-0.0384674072265625,65689.650306875,-0.2783013704376146,0.2122000665283546,1.436207313417243,-0.4813347160816193,-0.02908977121114731,-0.1032420843839645,0.009688572958111763,0.02206045389175415,0.09788572788238525,XArbitraryZVertical,0.6589955558858055,-0.0117685128037002,-0.03485791451736685,0.7512464248535086,0.02826031483709812,-0.9909565448760986,-0.1311727166175842,65662.82436754167,unknown,2,2020-03-11 14:13:20.361 +0100,605625226.040729,0,44257.92,100.1227
2020-03-11 14:13:47.201 +0100,65689.66538187501,0.0540313720703125,-0.9775543212890625,-0.0548858642578125,65689.660356875,-0.2781406081021975,0.2116089488567217,1.431433516531505,-0.4616028070449829,-0.05713285505771637,-0.1029771044850349,0.02186491712927818,0.02819889783859253,0.09735298156738281,XArbitraryZVertical,0.6572371883059461,-0.01152553092507476,-0.03539667089915408,0.7527638403482442,0.0291760116815567,-0.990304708480835,-0.1358128786087036,65662.82436754167,unknown,2,2020-03-11 14:13:20.361 +0100,605625226.040729,0,44257.92,100.1227
2020-03-11 14:13:47.211 +0100,65689.67543087501,0.0532684326171875,-0.9835357666015625,-0.069244384765625,65689.670406875,-0.27869560471763,0.211497331465018,1.426964738510695,-0.4304430484771729,-0.07461812347173691,-0.1024560183286667,0.02394212037324905,0.0121111273765564,0.08526307344436646,XArbitraryZVertical,0.6555914239521902,-0.0113637664624416,-0.0360208932408083,0.7541704748466947,0.03008954226970673,-0.9896740317344666,-0.1401415020227432,65662.82436754167,unknown,2,2020-03-11 14:13:20.361 +0100,605625226.040729,0,44257.92,100.1227
2020-03-11 14:13:47.222 +0100,65689.68548087501,0.0439605712890625,-0.9679412841796875,-0.071044921875,65689.680455875,-0.2792857090210801,0.211180278626369,1.42283338374405,-0.3996891379356384,-0.1025674641132355,-0.09223854541778564,0.02236677333712578,0.005528926849365234,0.07491123676300049,XArbitraryZVertical,0.6540625959335077,-0.0113194177107154,-0.03669741076250006,0.755464889531406,0.03090196289122105,-0.9890734553337097,-0.144147977232933,65662.82436754167,unknown,2,2020-03-11 14:13:20.361 +0100,605625226.040729,0,44257.92,100.1227
2020-03-11 14:13:47.232 +0100,65689.695530875,0.039764404296875,-0.9560089111328125,-0.07855224609375,65689.690505875,-0.2799224597445455,0.210662139256364,1.419132630496534,-0.3343373537063599,-0.125309631228447,-0.08484604209661484,0.01236836612224579,0.02057093381881714,0.07670527696609497,XArbitraryZVertical,0.6526857199447003,-0.01140310489447444,-0.03742084594719393,0.7566181028146648,0.03159251064062119,-0.9885210990905762,-0.1477426439523697,65662.82436754167,unknown,2,2020-03-11 14:13:20.361 +0100,605625226.040729,0,44257.92,100.1227
2020-03-11 14:13:47.242 +0100,65689.705580875,0.0388946533203125,-0.9535980224609375,-0.08282470703125,65689.70055587501,-0.2811914318038101,0.2104753675167229,1.416269509555095,-0.2411858290433884,-0.1619448810815811,-0.0771002322435379,0.007608674466609955,0.03206688165664673,0.07197058200836182,XArbitraryZVertical,0.6516185979915899,-0.0116395450216696,-0.03820472825898317,0.757494569597671,0.03215603902935982,-0.9880844950675964,-0.1505154520273209,65662.82436754167,unknown,2,2020-03-11 14:13:20.361 +0100,605625226.040729,0,44257.92,100.1227
2020-03-11 14:13:47.252 +0100,65689.71562987501,0.0409088134765625,-0.9667816162109375,-0.091888427734375,65689.71060587501,-0.2827850767373476,0.2102261498706424,1.414310709962717,-0.1572971791028976,-0.19965760409832,-0.05859486013650894,0.006372690200805664,0.03417438268661499,0.06959831714630127,XArbitraryZVertical,0.650881084057772,-0.01208276405770605,-0.03905600875002217,0.7580780160762534,0.03252227976918221,-0.9877811074256897,-0.1524156481027603,65662.82436754167,unknown,2,2020-03-11 14:13:20.361 +0100,605625226.040729,0,44257.92,100.1227
2020-03-11 14:13:47.262 +0100,65689.725679875,0.0406036376953125,-0.97991943359375,-0.1060638427734375,65689.72065487501,-0.2843873908610228,0.2096469490689476,1.413135833852108,-0.09316211938858032,-0.2311137914657593,-0.03701153770089149,0.008233506232500076,0.02080702781677246,0.06168907880783081,XArbitraryZVertical,0.6504253551195516,-0.01272120796756969,-0.03995189792553457,0.7584120351731886,0.03267562016844749,-0.9875972867012024,-0.1535700559616089,65662.82436754167,unknown,2,2020-03-11 14:13:20.361 +0100,605625226.040729,0,44257.92,100.1227
2020-03-11 14:13:47.272 +0100,65689.735729875,0.0372314453125,-0.9950714111328125,-0.1170501708984375,65689.73070487501,-0.28520923704742,0.2080430344570695,1.412464399704087,-0.06176009029150009,-0.2501694560050964,-0.0139605812728405,0.008037898689508438,0.007563650608062744,0.0482136607170105,XArbitraryZVertical,0.650139674007303,-0.01353827753841674,-0.0408421448536633,0.7585952980756321,0.03256605193018913,-0.9874916672706604,-0.1542702317237854,65662.82436754167,unknown,2,2020-03-11 14:13:20.361 +0100,605625226.040729,0,44257.92,100.1227
2020-03-11 14:13:47.282 +0100,65689.74577987501,0.0343475341796875,-0.99993896484375,-0.1268310546875,65689.74075487501,-0.2857292849958523,0.2059709158089085,1.412119455663918,-0.03313936293125153,-0.2640021741390228,-0.01179756131023169,0.004915684461593628,-0.007642865180969238,0.03762853145599365,XArbitraryZVertical,0.6499655286310063,-0.01446323487928806,-0.04174218368004144,0.7586785146448897,0.03231607005000114,-0.9874371886253357,-0.1546712517738342,65662.82436754167,unknown,2,2020-03-11 14:13:20.361 +0100,605625226.040729,0,44257.92,100.1227
2020-03-11 14:13:47.292 +0100,65689.755828875,0.036651611328125,-0.993743896484375,-0.136810302734375,65689.75080387501,-0.286438587986352,0.2039669319275342,1.411923821801925,-0.02520875632762909,-0.274887889623642,-0.01172256004065275,0.002302691340446472,-0.01254141330718994,0.02810108661651611,XArbitraryZVertical,0.6498456167196193,-0.01543696437512509,-0.04267898685613969,0.7587099096664195,0.0320451483130455,-0.987406313419342,-0.154924750328064,65662.82436754167,unknown,2,2020-03-11 14:13:20.361 +0100,605625226.040729,0,44257.92,100.1227
2020-03-11 14:13:47.302 +0100,65689.765878875,0.0308380126953125,-0.9879913330078125,-0.147369384765625,65689.76085387501,-0.287170124955211,0.2019333126139133,1.411788994197653,-0.02927540242671967,-0.2750956118106842,-0.01189513318240643,0.004895180463790894,-0.006367743015289307,0.01831716299057007,XArbitraryZVertical,0.6497460022928867,-0.01643442244286525,-0.04362858568451919,0.7587202708782017,0.03175674006342888,-0.9873849749565125,-0.1551200896501541,65662.82436754167,unknown,2,2020-03-11 14:13:20.361 +0100,605625226.040729,0,44257.92,100.1227
2020-03-11 14:13:47.312 +0100,65689.77592887501,0.0299835205078125,-0.992523193359375,-0.1484832763671875,65689.770903875,-0.2876702268259971,0.1996661853849139,1.411472170710747,-0.056827612221241,-0.2748177647590637,-0.0118359113112092,-0.0006286725401878357,-0.0006654858589172363,0.008136332035064697,XArbitraryZVertical,0.6495745813402574,-0.01742961308122479,-0.0445813395633138,0.758789436549549,0.03146699815988541,-0.9873347282409668,-0.1554981470108032,65662.82436754167,unknown,2,2020-03-11 14:13:20.361 +0100,605625226.040729,0,44257.92,100.1227
2020-03-11 14:13:47.322 +0100,65689.78597887501,0.03521728515625,-1.000534057617188,-0.1543731689453125,65689.780953875,-0.2875109880533053,0.1968217502919864,1.410793225513262,-0.09928213059902191,-0.2600547969341278,-0.004996913485229015,-0.001171788200736046,-0.005305290222167969,0.007768511772155762,XArbitraryZVertical,0.6492606288529648,-0.01839881609287946,-0.04550122431902012,0.7589806066824915,0.03115561790764332,-0.9872267842292786,-0.156244233250618,65662.82436754167,unknown,2,2020-03-11 14:13:20.361 +0100,605625226.040729,0,44257.92,100.1227
2020-03-11 14:13:47.332 +0100,65689.79602787501,0.0456390380859375,-0.99493408203125,-0.1517333984375,65689.791002875,-0.2866298735371943,0.193404441085307,1.409770234082581,-0.131037101149559,-0.2484526932239532,-0.002647305838763714,0.004402000457048416,-0.01347965002059937,0.002975165843963623,XArbitraryZVertical,0.6488114080637237,-0.01932257087041908,-0.04636050598827948,0.7592897318650439,0.03081559017300606,-0.9870632886886597,-0.157340794801712,65662.82436754167,unknown,2,2020-03-11 14:13:20.361 +0100,605625226.040729,0,44257.92,100.1227
2020-03-11 14:13:47.342 +0100,65689.80607787501,0.049041748046875,-0.987945556640625,-0.1549530029296875,65689.801052875,-0.2851680626486193,0.1895181686835941,1.408438584706033,-0.1554535031318665,-0.2347720414400101,0.00261243712157011,0.01518773101270199,-0.008094251155853271,0.00702512264251709,XArbitraryZVertical,0.6482407738129367,-0.02021154328724115,-0.04717474379886442,0.7597038010777218,0.03045161254703999,-0.9868488907814026,-0.1587507873773575,65662.82436754167,unknown,2,2020-03-11 14:13:20.361 +0100,605625226.040729,0,44257.92,100.1227
2020-03-11 14:13:47.352 +0100,65689.816127875,0.0492095947265625,-0.983367919921875,-0.1505279541015625,65689.811102875,-0.2837558010564042,0.1858519975825691,1.406993098452983,-0.1505961865186691,-0.2203747034072876,-0.007406674791127443,0.01890922896564007,-0.001340389251708984,0.005317032337188721,XArbitraryZVertical,0.6476316290101346,-0.02102597518160122,-0.04794294329313786,0.7601529040994492,0.03013282082974911,-0.9866142272949219,-0.1602623611688614,65662.82436754167,unknown,2,2020-03-11 14:13:20.361 +0100,605625226.040729,0,44257.92,100.1227
2020-03-11 14:13:47.363 +0100,65689.82617687501,0.048370361328125,-0.978302001953125,-0.148162841796875,65689.82115287501,-0.282899845860375,0.1829025442217755,1.40561839475589,-0.1449063420295715,-0.198585256934166,-0.01165388431400061,0.01930311322212219,0.003012120723724365,0.01116442680358887,XArbitraryZVertical,0.6470582112277702,-0.02175595722517812,-0.04868248115657955,0.7605736461921198,0.02990678325295448,-0.9863891005516052,-0.1616846919059753,65662.82436754167,unknown,2,2020-03-11 14:13:20.361 +0100,605625226.040729,0,44257.92,100.1227
2020-03-11 14:13:47.372 +0100,65689.83622687501,0.0462188720703125,-0.9705810546875,-0.1432037353515625,65689.831201875,-0.2821266479891981,0.1802456664440844,1.404234639350434,-0.1422284692525864,-0.1810397058725357,-0.01016687415540218,0.01864891685545444,0.007849693298339844,0.01495075225830078,XArbitraryZVertical,0.6464867151846121,-0.0224024234834584,-0.04935763100248328,0.760997215844731,0.02972174249589443,-0.9861606359481812,-0.1631061136722565,65662.82436754167,unknown,2,2020-03-11 14:13:20.361 +0100,605625226.040729,0,44257.92,100.1227
2020-03-11 14:13:47.382 +0100,65689.846276875,0.0417938232421875,-0.96429443359375,-0.1371612548828125,65689.841251875,-0.2812324068223797,0.1776223250460733,1.402836125206723,-0.1465603709220886,-0.16495181620121,-0.007882148958742619,0.01668176054954529,0.01533782482147217,0.02134454250335693,XArbitraryZVertical,0.6459107814946405,-0.02299736549943471,-0.04997523079699778,0.7614280834461121,0.02953740023076534,-0.9859278202056885,-0.1645407676696777,65662.82436754167,unknown,2,2020-03-11 14:13:20.361 +0100,605625226.040729,0,44257.92,100.1227
2020-03-11 14:13:47.393 +0100,65689.856326875,0.043060302734375,-0.9684295654296875,-0.1313934326171875,65689.85130187501,-0.2800671544544033,0.1748645113239863,1.401332028213707,-0.161888524889946,-0.155695304274559,-0.004776004236191511,0.0124526284635067,0.02137190103530884,0.02892804145812988,XArbitraryZVertical,0.6452941557764073,-0.02354913749522314,-0.05053935743843593,0.7618966725124838,0.02934148535132408,-0.9856752753257751,-0.1660817861557007,65662.82436754167,unknown,2,2020-03-11 14:13:20.361 +0100,605625226.040729,0,44257.92,100.1227
2020-03-11 14:13:47.403 +0100,65689.866375875,0.045654296875,-0.9727630615234375,-0.1321258544921875,65689.86135187501,-0.2785673533925743,0.1718521738659688,1.39970477298127,-0.177913561463356,-0.1480845212936401,0.001511719077825546,0.01394532062113285,0.01696103811264038,0.03636336326599121,XArbitraryZVertical,0.6446281005130555,-0.02408220442410044,-0.05106528186631604,0.7624085718996987,0.02911527268588543,-0.9853994846343994,-0.1677493155002594,65662.82436754167,unknown,2,2020-03-11 14:13:20.361 +0100,605625226.040729,0,44257.92,100.1227
2020-03-11 14:13:47.413 +0100,65689.876425875,0.0467071533203125,-0.96124267578125,-0.1324310302734375,65689.87140087501,-0.2764946682666481,0.1683772703849441,1.397863281691263,-0.1982855498790741,-0.1379325836896896,0.01039855368435383,0.01681824401021004,0.01231229305267334,0.03752034902572632,XArbitraryZVertical,0.6438756340549275,-0.02459264630578801,-0.05153521291841109,0.7629963631929199,0.02883633598685265,-0.9850842952728271,-0.1696387380361557,65662.82436754167,unknown,2,2020-03-11 14:13:20.361 +0100,605625226.040729,0,44257.92,100.1227
2020-03-11 14:13:47.423 +0100,65689.886475875,0.048004150390625,-0.94000244140625,-0.133575439453125,65689.88145087501,-0.2740051094757265,0.1645506154342691,1.395891899213415,-0.2139398753643036,-0.1380343288183212,0.01772917062044144,0.01820248365402222,0.02349174022674561,0.03923904895782471,XArbitraryZVertical,0.643069814757221,-0.02509679737786811,-0.05196503079440983,0.7636300445986844,0.02850494906306267,-0.9847431778907776,-0.1716627329587936,65662.82436754167,unknown,2,2020-03-11 14:13:20.361 +0100,605625226.040729,0,44257.92,100.1227
2020-03-11 14:13:47.433 +0100,65689.89652587501,0.0453643798828125,-0.93670654296875,-0.1486968994140625,65689.891500875,-0.2709959284932136,0.1602115708041984,1.39377382234447,-0.2211908400058746,-0.1402124911546707,0.02402082085609436,0.01991189457476139,0.04436099529266357,0.04027575254440308,XArbitraryZVertical,0.6422006214146581,-0.02562277906707526,-0.05236708783988887,0.7643163033943726,0.02809253707528114,-0.9843723773956299,-0.1738436669111252,65662.82436754167,unknown,2,2020-03-11 14:13:20.361 +0100,605625226.040729,0,44257.92,100.1227
2020-03-11 14:13:47.443 +0100,65689.906574875,0.04144287109375,-0.936737060546875,-0.161590576171875,65689.90154987501,-0.2679939826101186,0.155897008913149,1.391703248853057,-0.2116537988185883,-0.136308029294014,0.02532603964209557,0.01770602166652679,0.0472901463508606,0.02728700637817383,XArbitraryZVertical,0.6413485179731894,-0.0261507392418554,-0.05275492263914892,0.7649869502117768,0.02765863388776779,-0.9840056300163269,-0.1759764403104782,65662.82436754167,unknown,2,2020-03-11 14:13:20.361 +0100,605625226.040729,0,44257.92,100.1227
2020-03-11 14:13:47.453 +0100,65689.916624875,0.0391387939453125,-0.9344940185546875,-0.1691741943359375,65689.91159987501,-0.2645823817253589,0.1511994398561614,1.389706079951607,-0.2083712369203568,-0.1322875618934631,0.04376772791147232,0.01431554928421974,0.04690200090408325,0.01646333932876587,XArbitraryZVertical,0.640518180573451,-0.02670490239522647,-0.05309782295081143,0.76563945183083,0.0271275881677866,-0.9836479425430298,-0.1780466139316559,65662.82436754167,unknown,2,2020-03-11 14:13:20.361 +0100,605625226.040729,0,44257.92,100.1227
2020-03-11 14:13:47.463 +0100,65689.92667487501,0.0369720458984375,-0.9284820556640625,-0.1817474365234375,65689.921649875,-0.2596176772039789,0.1450304766679829,1.387797202388942,-0.2037828713655472,-0.1236000657081604,0.08313537389039993,0.01283898949623108,0.04879957437515259,0.01090157032012939,XArbitraryZVertical,0.6397018159149527,-0.027338112754121,-0.05330424125616843,0.7662850392279783,0.02630006708204746,-0.9833023548126221,-0.1800684332847595,65662.82436754167,unknown,2,2020-03-11 14:13:20.361 +0100,605625226.040729,0,44257.92,100.1227
2020-03-11 14:13:47.473 +0100,65689.93672487501,0.02777099609375,-0.9356231689453125,-0.187255859375,65689.931699875,-0.2530889948267989,0.1374057312985912,1.386011142583402,-0.1925871074199677,-0.1139003708958626,0.1067778170108795,0.01180542260408401,0.05448496341705322,0.0002630949020385742,XArbitraryZVertical,0.6389145407239104,-0.0280462293083525,-0.05335992366348071,0.7669121539714322,0.02516687475144863,-0.9829757213592529,-0.1820032447576523,65662.82436754167,unknown,2,2020-03-11 14:13:20.361 +0100,605625226.040729,0,44257.92,100.1227
2020-03-11 14:13:47.483 +0100,65689.94677387501,0.0250701904296875,-0.9466705322265625,-0.1746063232421875,65689.941748875,-0.2457223015585289,0.1290867375767434,1.384401253378993,-0.1775602251291275,-0.1019795313477516,0.1218046993017197,0.003915663808584213,0.047046959400177,-0.003473937511444092,XArbitraryZVertical,0.6381884835433164,-0.02877461986648399,-0.05329480046943519,0.7674939499042205,0.02385556325316429,-0.9826786518096924,-0.1837749630212784,65662.82436754167,unknown,2,2020-03-11 14:13:20.361 +0100,605625226.040729,0,44257.92,100.1227
2020-03-11 14:13:47.493 +0100,65689.95682387501,0.0336456298828125,-0.949462890625,-0.166259765625,65689.951798875,-0.2376733460990955,0.1202154223565765,1.382906896293647,-0.1721269935369492,-0.09433091431856155,0.1444040536880493,0.00266994908452034,0.03572148084640503,0.01083832979202271,XArbitraryZVertical,0.6375030381118143,-0.02951443160498958,-0.05312712593187239,0.7680470170980002,0.02240046672523022,-0.98240065574646,-0.1854375451803207,65662.82436754167,unknown,2,2020-03-11 14:13:20.361 +0100,605625226.040729,0,44257.92,100.1227
2020-03-11 14:13:47.503 +0100,65689.966873875,0.03302001953125,-0.9569091796875,-0.1544647216796875,65689.961848875,-0.2286006661265124,0.1103933540979123,1.381305377184384,-0.1957127451896667,-0.08744344860315323,0.1610919535160065,0.01289452612400055,0.03262883424758911,0.02095896005630493,XArbitraryZVertical,0.6367701321743732,-0.03029671589627421,-0.05286521686703886,0.7686423343362523,0.02075130492448807,-0.982100248336792,-0.187211811542511,65662.82436754167,unknown,2,2020-03-11 14:13:20.361 +0100,605625226.040729,0,44257.92,100.1227
2020-03-11 14:13:47.513 +0100,65689.97692287501,0.0305633544921875,-0.9844818115234375,-0.1479644775390625,65689.97189887501,-0.2190657722413736,0.1001982654382771,1.379555744953845,-0.1977645009756088,-0.08033537864685059,0.1627435088157654,0.01400673761963844,0.02485132217407227,0.03466540575027466,XArbitraryZVertical,0.6359816191000878,-0.03107830018427462,-0.05254056871752662,0.7692859448044923,0.01901347376406193,-0.9817692041397095,-0.1891230344772339,65662.82436754167,unknown,2,2020-03-11 14:13:20.361 +0100,605625226.040729,0,44257.92,100.1227
2020-03-11 14:13:47.523 +0100,65689.98697287501,0.0301971435546875,-0.9910888671875,-0.142730712890625,65689.981947875,-0.2098400237182851,0.09040385843014404,1.377755515551917,-0.2078522890806198,-0.07167478650808334,0.1592744737863541,0.01324374601244926,-0.003065109252929688,0.04310280084609985,XArbitraryZVertical,0.6351832543743351,-0.03181401284536317,-0.05219711165263342,0.7699386010180251,0.01731978915631771,-0.981425404548645,-0.1910602003335953,65662.82436754167,unknown,2,2020-03-11 14:13:20.361 +0100,605625226.040729,0,44257.92,100.1227
2020-03-11 14:13:47.533 +0100,65689.997022875,0.0266571044921875,-0.9880218505859375,-0.130889892578125,65689.991997875,-0.2006601433999708,0.08068602855316269,1.375605506873165,-0.2570394575595856,-0.07080024480819702,0.1598124802112579,0.01456496864557266,-0.01008701324462891,0.05059874057769775,XArbitraryZVertical,0.6342560167044397,-0.0325295757418736,-0.05185065535076658,0.7706961319913427,0.01563234440982342,-0.9810106754302979,-0.1933222711086273,65662.82436754167,unknown,2,2020-03-11 14:13:20.361 +0100,605625226.040729,0,44257.92,100.1227
2020-03-11 14:13:47.543 +0100,65690.007072875,0.0246429443359375,-0.999481201171875,-0.1201934814453125,65690.00204787501,-0.1917468938818684,0.0712230980263244,1.372968270428796,-0.2950182557106018,-0.07305887341499329,0.1471832394599915,0.01267094537615776,-0.007534980773925781,0.06515836715698242,XArbitraryZVertical,0.6331474717411114,-0.03322272955750268,-0.05153265886551077,0.7715987955960203,0.01398630905896425,-0.9804957509040833,-0.1960410624742508,65662.82436754167,unknown,2,2020-03-11 14:13:20.361 +0100,605625226.040729,0,44257.92,100.1227
2020-03-11 14:13:47.553 +0100,65690.017121875,0.033599853515625,-1.006057739257812,-0.1075286865234375,65690.012096875,-0.1838766809160059,0.06274265204066008,1.369893947733336,-0.3400984108448029,-0.07974667102098465,0.1292865574359894,0.01213078945875168,-0.01960337162017822,0.07897448539733887,XArbitraryZVertical,0.6318804710298798,-0.03386365253244578,-0.05130719579379561,0.7726239775223095,0.01251228991895914,-0.9798868894577026,-0.1991606503725052,65662.82436754167,unknown,2,2020-03-11 14:13:20.361 +0100,605625226.040729,0,44257.92,100.1227
2020-03-11 14:13:47.564 +0100,65690.027171875,0.0389556884765625,-1.012603759765625,-0.104278564453125,65690.02214687501,-0.1765688245157872,0.05475554948296008,1.366258950310031,-0.4006504416465759,-0.08756518363952637,0.1248545348644257,0.0224839486181736,-0.02691161632537842,0.0952875018119812,XArbitraryZVertical,0.6304016779024012,-0.03448514123319481,-0.05114691968244112,0.7738141183651186,0.0111160296946764,-0.9791550636291504,-0.2028090059757233,65662.82436754167,unknown,2,2020-03-11 14:13:20.361 +0100,605625226.040729,0,44257.92,100.1227
2020-03-11 14:13:47.574 +0100,65690.037221875,0.0415496826171875,-1.025894165039062,-0.0954132080078125,65690.03219687501,-0.1698691565073213,0.04735088861528806,1.362071100310682,-0.4494097232818604,-0.0822468176484108,0.103022001683712,0.02914778515696526,-0.0343167781829834,0.1027085781097412,XArbitraryZVertical,0.6287130945309537,-0.03506952666121977,-0.05103881094084228,0.7751676032638073,0.009808016009628773,-0.9782958626747131,-0.2069799453020096,65662.82436754167,unknown,2,2020-03-11 14:13:20.361 +0100,605625226.040729,0,44257.92,100.1227
2020-03-11 14:13:47.584 +0100,65690.04727187501,0.0491790771484375,-1.036514282226562,-0.0873260498046875,65690.042246875,-0.1648331644173982,0.04161462987132504,1.357440845554449,-0.495720773935318,-0.08128169178962708,0.07356743514537811,0.03274084255099297,-0.04857718944549561,0.1161507368087769,XArbitraryZVertical,0.6268645232786495,-0.0355314304291663,-0.05104717798248862,0.7766417879339653,0.008808942511677742,-0.9773259162902832,-0.2115567773580551,65662.82436754167,unknown,2,2020-03-11 14:13:20.361 +0100,605625226.040729,0,44257.92,100.1227
2020-03-11 14:13:47.594 +0100,65690.057320875,0.051910400390625,-1.039657592773438,-0.077423095703125,65690.05229587501,-0.1611153991601431,0.03713949424557156,1.352475600421324,-0.5099965929985046,-0.08665908873081207,0.04895370453596115,0.0411369651556015,-0.06026065349578857,0.1291220784187317,XArbitraryZVertical,0.6248914220027221,-0.03591955938912175,-0.05116707999403827,0.7782045874138511,0.008042206987738609,-0.9762625694274902,-0.2164409905672073,65662.82436754167,unknown,2,2020-03-11 14:13:20.361 +0100,605625226.040729,0,44257.92,100.1227
2020-03-11 14:13:47.603 +0100,65690.06737087501,0.0481414794921875,-1.038070678710938,-0.0622711181640625,65690.06234587501,-0.1588419060174338,0.03398645992509727,1.347433958530234,-0.5258957147598267,-0.09847420454025269,0.01919420994818211,0.04438364133238792,-0.06450819969177246,0.1439647674560547,XArbitraryZVertical,0.6228926279751997,-0.03625335199776501,-0.05142588351514965,0.779772789805799,0.007526852656155825,-0.975158154964447,-0.2213809341192245,65662.82436754167,unknown,2,2020-03-11 14:13:20.361 +0100,605625226.040729,0,44257.92,100.1227
2020-03-11 14:13:47.613 +0100,65690.07742087501,0.03961181640625,-1.054550170898438,-0.0436553955078125,65690.072395875,-0.1584712387454103,0.03259995368406312,1.342166208306907,-0.5506052374839783,-0.1091324090957642,-0.02978099137544632,0.04075431823730469,-0.0641016960144043,0.164258599281311,XArbitraryZVertical,0.6208117210730109,-0.03648870731965728,-0.05187648570496335,0.7813898632898743,0.007387248799204826,-0.97397780418396,-0.226522758603096,65662.82436754167,unknown,2,2020-03-11 14:13:20.361 +0100,605625226.040729,0,44257.92,100.1227
2020-03-11 14:13:47.623 +0100,65690.087469875,0.0301361083984375,-1.067108154296875,-0.0299835205078125,65690.082445875,-0.1601683566018965,0.03310611558005087,1.33660813434086,-0.5939729809761047,-0.1184212490916252,-0.0738523080945015,0.03193094581365585,-0.0818558931350708,0.1882771253585815,XArbitraryZVertical,0.6186247126207174,-0.03661503487228961,-0.05255635321190812,0.783071157172277,0.007680962327867746,-0.9727030396461487,-0.2319256067276001,65662.82436754167,unknown,2,2020-03-11 14:13:20.361 +0100,605625226.040729,0,44257.92,100.1227
2020-03-11 14:13:47.634 +0100,65690.09751987501,0.0148773193359375,-1.060806274414062,-0.0209503173828125,65690.092494875,-0.1632655539745231,0.03487337317663816,1.330433229769232,-0.6768984794616699,-0.1336588561534882,-0.105836309492588,0.02183612436056137,-0.09586524963378906,0.2079328298568726,XArbitraryZVertical,0.6161995965698482,-0.03665014016229631,-0.05342019006728314,0.7849209024030663,0.008300077170133591,-0.9712516069412231,-0.2379096448421478,65662.82436754167,unknown,2,2020-03-11 14:13:20.361 +0100,605625226.040729,0,44257.92,100.1227
2020-03-11 14:13:47.644 +0100,65690.10756987501,-0.0036773681640625,-1.0467529296875,-0.0106964111328125,65690.102544875,-0.167487002708065,0.03753633472977909,1.323431270732292,-0.7546119093894958,-0.1526528000831604,-0.137978807091713,0.005688820034265518,-0.09125405550003052,0.2237336039543152,XArbitraryZVertical,0.6134486938647851,-0.0366346504956304,-0.05448830938967604,0.7870003166451276,0.00918860174715519,-0.969560980796814,-0.2446772009134293,65662.82436754167,unknown,2,2020-03-11 14:13:20.361 +0100,605625226.040729,0,44257.92,100.1227
2020-03-11 14:13:47.659 +0100,65690.117619875,-0.0130157470703125,-1.029861450195312,-0.006439208984375,65690.112594875,-0.1726217138537693,0.04086642566729448,1.315491040719934,-0.8525775671005249,-0.176512137055397,-0.1662235110998154,-0.01399480551481247,-0.07917541265487671,0.2416397929191589,XArbitraryZVertical,0.6103254763390792,-0.03657936922378062,-0.05576087266698891,0.7893385462675526,0.0103175500407815,-0.9675862193107605,-0.2523295283317566,65662.82436754167,unknown,2,2020-03-11 14:13:20.361 +0100,605625226.040729,0,44257.92,100.1227
2020-03-11 14:13:47.666 +0100,65690.12766887501,-0.0140228271484375,-1.02105712890625,0.0020294189453125,65690.12264487501,-0.1780473010376181,0.04421455822827706,1.306480343964781,-0.9685454368591309,-0.204511284828186,-0.1811808943748474,-0.02456284686923027,-0.06459850072860718,0.2545604705810547,XArbitraryZVertical,0.606768933376418,-0.0365358057764314,-0.05720308110827477,0.7919748781960497,0.01154722459614277,-0.9652714133262634,-0.2609931826591492,65662.82436754167,unknown,2,2020-03-11 14:13:20.361 +0100,605625226.040729,0,44257.92,100.1227
2020-03-11 14:13:47.674 +0100,65690.137718875,-0.0148162841796875,-1.029922485351562,0.005401611328125,65690.132693875,-0.1835764671639337,0.04736144183604216,1.296051907159907,-1.135637402534485,-0.2291426956653595,-0.2014089077711105,-0.0268670842051506,-0.05857104063034058,0.2730321288108826,XArbitraryZVertical,0.6026347413337322,-0.03651253447142411,-0.05882493528302039,0.7950079937177592,0.0128443855792284,-0.9624945521354675,-0.2709964215755463,65662.82436754167,unknown,2,2020-03-11 14:13:20.361 +0100,605625226.040729,0,44257.92,100.1227
2020-03-11 14:13:47.684 +0100,65690.147768875,-0.01617431640625,-1.0489501953125,0.0098876953125,65690.14274387501,-0.18933125400117,0.05054013281601678,1.283712525920182,-1.351611495018005,-0.2412110716104507,-0.2258279621601105,-0.02912081405520439,-0.07085722684860229,0.2882027626037598,XArbitraryZVertical,0.5977255749370153,-0.03642387511930791,-0.06062902710645145,0.7985746680506508,0.01430467236787081,-0.9590737223625183,-0.282794862985611,65662.82436754167,unknown,2,2020-03-11 14:13:20.361 +0100,605625226.040729,0,44257.92,100.1227
2020-03-11 14:13:47.694 +0100,65690.157818875,-0.021728515625,-1.05462646484375,0.0154876708984375,65690.15279387501,-0.1947824015058239,0.05326664492623578,1.268730934668305,-1.619471430778503,-0.2528504431247711,-0.2437503635883331,-0.03201308846473694,-0.09423458576202393,0.3069645166397095,XArbitraryZVertical,0.5917345925763379,-0.03626131123554537,-0.06258379894363643,0.8028813571918236,0.01583893597126007,-0.9547240734100342,-0.2970705926418304,65662.82436754167,unknown,2,2020-03-11 14:13:20.361 +0100,605625226.040729,0,44257.92,100.1227
2020-03-11 14:13:47.704 +0100,65690.167867875,-0.0327301025390625,-1.049667358398438,0.007720947265625,65690.162842875,-0.1999541616770984,0.05559480416066098,1.250697229784763,-1.950050115585327,-0.2633947134017944,-0.2677797973155975,-0.03921280056238174,-0.1054307222366333,0.3296678066253662,XArbitraryZVertical,0.5844811332639798,-0.03598303733495117,-0.06470240736859757,0.8080225423712553,0.01748446188867092,-0.9492042660713196,-0.3141740560531616,65662.82436754167,unknown,2,2020-03-11 14:13:20.361 +0100,605625226.040729,0,44257.92,100.1227
2020-03-11 14:13:47.714 +0100,65690.177917875,-0.053009033203125,-1.025985717773438,-0.037811279296875,65690.17289287501,-0.2051834169917231,0.05788096547809,1.229265237111636,-2.283050060272217,-0.2677799463272095,-0.3149902820587158,-0.0521051436662674,-0.1074327826499939,0.3420957922935486,XArbitraryZVertical,0.5758074034721996,-0.03551560457449385,-0.0670352366993551,0.8140581056189599,0.01937524043023586,-0.9422429800033569,-0.3343689441680908,65662.82436754167,unknown,2,2020-03-11 14:13:20.361 +0100,605625226.040729,0,44257.92,100.1227
2020-03-11 14:13:47.724 +0100,65690.187967875,-0.0908660888671875,-0.911712646484375,-0.1049652099609375,65690.18294287501,-0.2113059416095386,0.06088643977560416,1.205452458804771,-2.374502897262573,-0.2875936031341553,-0.3952875137329102,-0.07474829256534576,-0.09199321269989014,0.3188028335571289,XArbitraryZVertical,0.5661125792640063,-0.03481938576757458,-0.06967502807354185,0.8206396688349993,0.02173948101699352,-0.9340009689331055,-0.3566083014011383,65662.82436754167,unknown,2,2020-03-11 14:13:20.361 +0100,605625226.040729,0,44257.92,100.1227
2020-03-11 14:13:47.734 +0100,65690.198016875,-0.117156982421875,-0.77899169921875,-0.135955810546875,65690.192992875,-0.2197376971398846,0.06545760637036577,1.182097095040082,-2.190550804138184,-0.3598707318305969,-0.5183402299880981,-0.1156555712223053,0.01368194818496704,0.273213267326355,XArbitraryZVertical,0.5565549964167028,-0.03405875548678213,-0.0728738315142535,0.8269073462385954,0.0247897207736969,-0.925402820110321,-0.3781730830669403,65662.82436754167,unknown,2,2020-03-11 14:13:20.361 +0100,605625226.040729,0,44257.92,100.1227
2020-03-11 14:13:47.744 +0100,65690.208066875,-0.1209259033203125,-0.7295989990234375,-0.186553955078125,65690.20304187501,-0.2311751382587144,0.07197276106267507,1.161864060837531,-1.740105271339417,-0.446451723575592,-0.6373262405395508,-0.1457505077123642,0.1385460495948792,0.2606497406959534,XArbitraryZVertical,0.5482571123449057,-0.03337704655721539,-0.07673474547147259,0.8321128260914636,0.02859380282461643,-0.9175459146499634,-0.396600216627121,65662.82436754167,unknown,2,2020-03-11 14:13:20.361 +0100,605625226.040729,0,44257.92,100.1227
2020-03-11 14:13:47.754 +0100,65690.21811687501,-0.1029052734375,-0.771209716796875,-0.212890625,65690.213091875,-0.2449957984729897,0.07952341897091907,1.146454572769677,-1.246314287185669,-0.5637516975402832,-0.6973271369934082,-0.1536325216293335,0.181702733039856,0.2238708734512329,XArbitraryZVertical,0.5419377574341905,-0.03307097342959792,-0.08118151445219857,0.835834399998915,0.03270694240927696,-0.9113099575042725,-0.4104195535182953,65662.82436754167,unknown,2,2020-03-11 14:13:20.361 +0100,605625226.040729,0,44257.92,100.1227
2020-03-11 14:13:47.764 +0100,65690.22816687501,-0.0911407470703125,-0.8498687744140625,-0.2398681640625,65690.223141875,-0.2597828003025676,0.0868148021312045,1.135283440432746,-0.891911506652832,-0.6552911996841431,-0.7062340974807739,-0.1394839584827423,0.1354359984397888,0.2074009776115417,XArbitraryZVertical,0.5373530544747385,-0.03329354187212787,-0.08597620440966494,0.838302560261356,0.03657902777194977,-0.9066537618637085,-0.4202864766120911,65662.82436754167,unknown,2,2020-03-11 14:13:20.361 +0100,605625226.040729,0,44257.92,100.1227
2020-03-11 14:13:47.774 +0100,65690.238215875,-0.100006103515625,-0.8886260986328125,-0.2459564208984375,65690.23319087501,-0.2747407324180143,0.09351333132534563,1.126751777547069,-0.705945611000061,-0.6984001994132996,-0.7136295437812805,-0.131254717707634,0.05314469337463379,0.1878551244735718,XArbitraryZVertical,0.533845667679991,-0.03390722776224207,-0.09092344131492744,0.8399952132974366,0.04011435061693192,-0.903021514415741,-0.4277181923389435,65662.82436754167,unknown,2,2020-03-11 14:13:20.361 +0100,605625226.040729,0,44257.92,100.1227
2020-03-11 14:13:47.784 +0100,65690.24826587501,-0.1135101318359375,-0.8826904296875,-0.2412872314453125,65690.243240875,-0.2899627581875903,0.1001331978848788,1.119346556237092,-0.6414579153060913,-0.7152646780014038,-0.7403170466423035,-0.1436178833246231,0.0111812949180603,0.1881336569786072,XArbitraryZVertical,0.5308083026077808,-0.03464130358320097,-0.09598702610277407,0.8413256916317308,0.04361218214035034,-0.899815559387207,-0.4340850412845612,65662.82436754167,unknown,2,2020-03-11 14:13:20.361 +0100,605625226.040729,0,44257.92,100.1227
2020-03-11 14:13:47.795 +0100,65690.25831587501,-0.1185150146484375,-0.8662109375,-0.231353759765625,65690.253290875,-0.3057406328666027,0.1070867576579468,1.112218926312085,-0.6242913007736206,-0.7250912189483643,-0.7755786776542664,-0.1608235239982605,0.0139845609664917,0.1988547444343567,XArbitraryZVertical,0.5279035849564705,-0.03534556498690448,-0.1012228305987436,0.8425095226088378,0.04731383919715881,-0.8966831564903259,-0.4401369988918304,65662.82436754167,unknown,2,2020-03-11 14:13:20.361 +0100,605625226.040729,0,44257.92,100.1227
2020-03-11 14:13:47.805 +0100,65690.268365875,-0.107421875,-0.8463287353515625,-0.242584228515625,65690.263340875,-0.3216476825049114,0.1139563259410041,1.10525664340793,-0.6019652485847473,-0.7444683909416199,-0.7738971710205078,-0.1695594489574432,0.02736032009124756,0.214644730091095,XArbitraryZVertical,0.5250731501587952,-0.03607567229692783,-0.106566971378344,0.8435876778060591,0.05104492604732513,-0.8935794234275818,-0.4459934532642365,65662.82436754167,unknown,2,2020-03-11 14:13:20.361 +0100,605625226.040729,0,44257.92,100.1227
2020-03-11 14:13:47.815 +0100,65690.27841487501,-0.0987091064453125,-0.8322906494140625,-0.2596893310546875,65690.273389875,-0.3368524922980138,0.1198383158465885,1.098088854665056,-0.6686490774154663,-0.7883613109588623,-0.7508165836334229,-0.1618530601263046,0.04400217533111572,0.2094535827636719,XArbitraryZVertical,0.5221274069172959,-0.03696599220415207,-0.1119274191974969,0.8446825592991853,0.05443168804049492,-0.8903388381004333,-0.4520329833030701,65662.82436754167,unknown,2,2020-03-11 14:13:20.361 +0100,605625226.040729,0,44257.92,100.1227
2020-03-11 14:13:47.825 +0100,65690.288464875,-0.103515625,-0.8918609619140625,-0.325958251953125,65690.283439875,-0.3510924663809668,0.1244470908254046,1.089674804757323,-0.8340718746185303,-0.805934727191925,-0.7500432133674622,-0.1561508476734161,0.05417799949645996,0.199509859085083,XArbitraryZVertical,0.5186139807842881,-0.03797759650929895,-0.1173372008383675,0.8460667590032011,0.05744226276874542,-0.886476457118988,-0.4591944813728333,65662.82436754167,unknown,2,2020-03-11 14:13:20.361 +0100,605625226.040729,0,44257.92,100.1227
2020-03-11 14:13:47.835 +0100,65690.298514875,-0.1096038818359375,-0.94879150390625,-0.393310546875,65690.29348987501,-0.3649373842641611,0.1286555741276563,1.079429460768669,-1.033709526062012,-0.7863210439682007,-0.7845268845558167,-0.1640514582395554,-0.01018017530441284,0.1419782042503357,XArbitraryZVertical,0.5143215437007883,-0.03882638166677349,-0.1228563339472502,0.8478631985082024,0.06053639948368073,-0.8816887736320496,-0.467931717634201,65662.82436754167,unknown,2,2020-03-11 14:13:20.361 +0100,605625226.040729,0,44257.92,100.1227
2020-03-11 14:13:47.845 +0100,65690.30856387501,-0.110870361328125,-0.9336700439453125,-0.4296722412109375,65690.30353987501,-0.378397577075637,0.1327450698206403,1.066759109196795,-1.305556535720825,-0.7593029737472534,-0.8049991130828857,-0.1735263168811798,-0.07315945625305176,0.08540958166122437,XArbitraryZVertical,0.509014760215347,-0.03932214253993989,-0.1284707294711361,0.8502075470101544,0.06392303109169006,-0.8756398558616638,-0.4787154793739319,65662.82436754167,unknown,2,2020-03-11 14:13:20.361 +0100,605625226.040729,0,44257.92,100.1227
2020-03-11 14:13:47.855 +0100,65690.318613875,-0.102386474609375,-0.9061279296875,-0.4597625732421875,65690.31358887501,-0.3908819129054719,0.136067926081271,1.051353931768748,-1.571080565452576,-0.7481306195259094,-0.8111702799797058,-0.1782050877809525,-0.06558185815811157,0.06214022636413574,XArbitraryZVertical,0.5025262536163952,-0.03953998944336942,-0.1341270276676229,0.8531786537519204,0.0673353523015976,-0.8680961132049561,-0.4918079078197479,65662.82436754167,unknown,2,2020-03-11 14:13:20.361 +0100,605625226.040729,0,44257.92,100.1227
2020-03-11 14:13:47.865 +0100,65690.328663875,-0.0749359130859375,-0.8986968994140625,-0.4713287353515625,65690.32363887501,-0.4023834710763256,0.1384918417021209,1.033433578522416,-1.768771529197693,-0.7200973629951477,-0.8492377400398254,-0.1730495244264603,-0.04707425832748413,0.04721295833587646,XArbitraryZVertical,0.4949249308516903,-0.03954458688649216,-0.1398385903989711,0.8566974824515947,0.07066371291875839,-0.859061598777771,-0.5069710612297058,65662.82436754167,unknown,2,2020-03-11 14:13:20.361 +0100,605625226.040729,0,44257.92,100.1227
2020-03-11 14:13:47.875 +0100,65690.338713875,-0.054534912109375,-0.9024200439453125,-0.543212890625,65690.33368887501,-0.4134064169774484,0.1404586471671793,1.013389652347771,-2.013418674468994,-0.7722492814064026,-0.8365994095802307,-0.1489919573068619,-0.05007493495941162,0.05245316028594971,XArbitraryZVertical,0.4863809207138725,-0.03930401145586994,-0.1456763523648745,0.8606201780077554,0.07405674457550049,-0.8486297726631165,-0.5237776041030884,65662.82436754167,unknown,2,2020-03-11 14:13:20.361 +0100,605625226.040729,0,44257.92,100.1227
2020-03-11 14:13:47.885 +0100,65690.34876225001,-0.0934906005859375,-0.9261016845703125,-0.728851318359375,65690.34373825,-0.4229349986773245,0.1404336318118004,0.9907690935975372,-2.367181539535522,-0.8111130595207214,-0.8332720398902893,-0.1312456279993057,-0.06597995758056641,-0.0005574226379394531,XArbitraryZVertical,0.4765911641501608,-0.03918188891683715,-0.1515989804499286,0.8650683419692942,0.07671144604682922,-0.8364477157592773,-0.5426512956619263,65662.82436754167,unknown,2,2020-03-11 14:13:20.361 +0100,605625226.040729,0,44257.92,100.1227
2020-03-11 14:13:47.895 +0100,65690.35881225001,0.0158538818359375,-0.8867034912109375,-0.5950927734375,65690.35378725,-0.4331669261088527,0.1417988650480003,0.9663236916987658,-2.384460210800171,-0.640568733215332,-0.8644838929176331,-0.1738083362579346,-0.1033072471618652,-0.1662233471870422,XArbitraryZVertical,0.4660682413526596,-0.03831959654011875,-0.157675169848891,0.8697415514331607,0.08031848818063736,-0.822801947593689,-0.5626239776611328,65662.82436754167,unknown,2,2020-03-11 14:13:20.361 +0100,605625226.040729,0,44257.92,100.1227
2020-03-11 14:13:47.905 +0100,65690.36886225,-0.0114593505859375,-0.8353424072265625,-0.7649383544921875,65690.36383725,-0.4387539747361364,0.1394517090953029,0.9377305421730782,-3.044944047927856,-0.7561630010604858,-0.7145373225212097,-0.06638050079345703,-0.08049339056015015,-0.009213089942932129,XArbitraryZVertical,0.4534980538856057,-0.03743747066453602,-0.1629372190835693,0.875436621330175,0.08223515748977661,-0.8062175512313843,-0.585875928401947,65662.82436754167,unknown,2,2020-03-11 14:13:20.361 +0100,605625226.040729,0,44257.92,100.1227
2020-03-11 14:13:47.915 +0100,65690.37891225,0.0247344970703125,-0.7963714599609375,-0.673980712890625,65690.37388725001,-0.4452646557150214,0.1377478875573617,0.9058589989456296,-3.14787220954895,-0.5892529487609863,-0.9031376838684082,-0.09618182480335236,-0.04839420318603516,-0.1537696123123169,XArbitraryZVertical,0.4394525440589276,-0.0360392397997263,-0.1686915418732071,0.8815473213446144,0.08472326397895813,-0.7869554758071899,-0.6111652851104736,65662.82436754167,unknown,2,2020-03-11 14:13:20.361 +0100,605625226.040729,0,44257.92,100.1227
2020-03-11 14:13:47.925 +0100,65690.38896125001,0.0408477783203125,-0.740386962890625,-0.7045745849609375,65690.38393625,-0.4521988872679329,0.1371512889835553,0.8719905188252877,-3.40251898765564,-0.625066876411438,-0.8650155663490295,-0.06321826577186584,-0.03076761960983276,-0.03671455383300781,XArbitraryZVertical,0.4245209292254413,-0.03391986994958013,-0.1745273847034683,0.8877902325719303,0.0879535973072052,-0.765610933303833,-0.6372628211975098,65662.82436754167,unknown,2,2020-03-11 14:13:20.361 +0100,605625226.040729,0,44257.92,100.1227
2020-03-11 14:13:47.935 +0100,65690.39901125,0.01837158203125,-0.6577911376953125,-0.7574005126953125,65690.39398625,-0.4583836729856954,0.1353371698892281,0.8370056772642853,-3.339435577392578,-0.6817919611930847,-0.8815539479255676,-0.04950882494449615,0.002247333526611328,-0.04100573062896729,XArbitraryZVertical,0.4088963471173328,-0.0319514192337321,-0.1803480958169617,0.8940119366939725,0.0903574526309967,-0.7426412105560303,-0.6635657548904419,65662.82436754167,unknown,2,2020-03-11 14:13:20.361 +0100,605625226.040729,0,44257.92,100.1227
2020-03-11 14:13:47.945 +0100,65690.40906125,0.02423095703125,-0.6381988525390625,-0.76202392578125,65690.40403625001,-0.4652311305789344,0.1332222586060053,0.8035739893247063,-3.114468097686768,-0.724884033203125,-0.9365609884262085,-0.07382894307374954,0.06204378604888916,-0.06941002607345581,XArbitraryZVertical,0.3938092959802833,-0.03033824996443973,-0.1863660079153521,0.8995895939648784,0.09220138192176819,-0.7198415398597717,-0.6879876852035522,65662.82436754167,unknown,2,2020-03-11 14:13:20.361 +0100,605625226.040729,0,44257.92,100.1227
2020-03-11 14:13:47.955 +0100,65690.41911025,0.0760498046875,-0.6555328369140625,-0.800445556640625,65690.41408625001,-0.4731835892434713,0.131760217423088,0.7728620174300246,-2.787176609039307,-0.6867861747741699,-0.9721710681915283,-0.06982463598251343,0.05998188257217407,-0.05231142044067383,XArbitraryZVertical,0.3798838128518116,-0.02886744570640495,-0.1925157202565381,0.9043188471757134,0.09405646473169327,-0.6981870532035828,-0.7097099423408508,65662.82436754167,unknown,2,2020-03-11 14:13:20.361 +0100,605625226.040729,0,44257.92,100.1227
2020-03-11 14:13:47.965 +0100,65690.42916025,0.1215667724609375,-0.63665771484375,-0.839141845703125,65690.42413525001,-0.482061851849142,0.1308403628392401,0.7455449280382863,-2.437482357025146,-0.7227204442024231,-1.007436633110046,-0.01980607211589813,0.02283322811126709,-0.07200467586517334,XArbitraryZVertical,0.3674474230221447,-0.02762597868724151,-0.1987137299938401,0.9081475544927675,0.09585676342248917,-0.6783722639083862,-0.7284383773803711,65662.82436754167,unknown,2,2020-03-11 14:13:20.361 +0100,605625226.040729,0,44257.92,100.1227
2020-03-11 14:13:47.975 +0100,65690.43921025,0.1050262451171875,-0.5765380859375,-0.8690185546875,65690.43418525001,-0.4918535799301469,0.1300011790668991,0.7217618233993945,-2.057341575622559,-0.7424261569976807,-1.051393985748291,0.02425786107778549,0.0240444540977478,-0.09483087062835693,XArbitraryZVertical,0.3565463443830434,-0.02683984249203942,-0.2050470686172058,0.911103626533711,0.09730981290340424,-0.6607081890106201,-0.7443086504936218,65662.82436754167,unknown,2,2020-03-11 14:13:20.361 +0100,605625226.040729,0,44257.92,100.1227
2020-03-11 14:13:47.985 +0100,65690.44926025001,0.072540283203125,-0.4990997314453125,-0.8847503662109375,65690.44423525,-0.5029821973293968,0.1297851058381082,0.7018158043416819,-1.664899349212646,-0.7402192354202271,-1.125471711158752,0.006192028522491455,0.06906157732009888,-0.1117680072784424,XArbitraryZVertical,0.3473899527319462,-0.02638206501743244,-0.2116020483473766,0.9131531082224239,0.09883511811494827,-0.6456054449081421,-0.7572484016418457,65662.82436754167,unknown,2,2020-03-11 14:13:20.361 +0100,605625226.040729,0,44257.92,100.1227
2020-03-11 14:13:47.995 +0100,65690.45930925,0.0566558837890625,-0.464874267578125,-0.8883514404296875,65690.45428525,-0.5153681263286238,0.1302366124775577,0.6855216075942363,-1.313462495803833,-0.7455211877822876,-1.172994613647461,-0.02798875421285629,0.1339713931083679,-0.1172150373458862,XArbitraryZVertical,0.3399215962646778,-0.02620436150336542,-0.2183610608525881,0.9143768015394864,0.1005299612879753,-0.6330768465995789,-0.7675333023071289,65662.82436754167,unknown,2,2020-03-11 14:13:20.361 +0100,605625226.040729,0,44257.92,100.1227
2020-03-11 14:13:48.005 +0100,65690.46935925,0.0477142333984375,-0.484161376953125,-0.902191162109375,65690.46433425001,-0.5285721987185452,0.1309444225645686,0.6723013127601631,-1.036288857460022,-0.7655475735664368,-1.198058843612671,-0.04550030082464218,0.1579081416130066,-0.1126569509506226,XArbitraryZVertical,0.3338545668958294,-0.02636118164860842,-0.2252401077277145,0.9149387632383917,0.1021571457386017,-0.62278813123703,-0.7756924033164978,65662.82436754167,unknown,2,2020-03-11 14:13:20.361 +0100,605625226.040729,0,44257.92,100.1227
2020-03-11 14:13:48.015 +0100,65690.47940925001,0.043548583984375,-0.5097503662109375,-0.90386962890625,65690.47438425,-0.5423191341174542,0.131638299500709,0.6613286540715086,-0.865275502204895,-0.7838262319564819,-1.21696937084198,-0.05587093532085419,0.1299989819526672,-0.119840145111084,XArbitraryZVertical,0.3287934607267999,-0.02683904230888705,-0.2322161568535883,0.9150136639549378,0.1035861298441887,-0.6141659617424011,-0.7823490500450134,65662.82436754167,unknown,2,2020-03-11 14:13:20.361 +0100,605625226.040729,0,44257.92,100.1227
2020-03-11 14:13:48.025 +0100,65690.48945925001,0.0465850830078125,-0.529632568359375,-0.897705078125,65690.48443425,-0.5561316995901041,0.1320037572246942,0.6514451704893722,-0.8088819980621338,-0.8244919180870056,-1.195519685745239,-0.06111635267734528,0.0965803861618042,-0.1155775785446167,XArbitraryZVertical,0.3241841978578411,-0.02755991501734864,-0.2392028391145399,0.9148370498327554,0.1046658977866173,-0.606336236000061,-0.7882901430130005,65662.82436754167,unknown,2,2020-03-11 14:13:20.361 +0100,605625226.040729,0,44257.92,100.1227
2020-03-11 14:13:48.036 +0100,65690.49950825001,0.0471343994140625,-0.5531158447265625,-0.8878631591796875,65690.49448325,-0.5695788326848805,0.1315791296152981,0.6419171284450582,-0.7873137593269348,-0.8628203868865967,-1.17599892616272,-0.058498315513134,0.06909400224685669,-0.1036773324012756,XArbitraryZVertical,0.3196416037109796,-0.02857095357865469,-0.2461264985990639,0.9145679398951182,0.1050843819975853,-0.598732054233551,-0.7940258979797363,65662.82436754167,unknown,2,2020-03-11 14:13:20.361 +0100,605625226.040729,0,44257.92,100.1227
2020-03-11 14:13:48.046 +0100,65690.50955825001,0.03363037109375,-0.5558013916015625,-0.90093994140625,65690.50453325,-0.5830187286833811,0.1309738649600534,0.6327777620092636,-0.7386798858642578,-0.8499400019645691,-1.190427184104919,-0.05817866325378418,0.03826570510864258,-0.08838003873825073,XArbitraryZVertical,0.3152453461369711,-0.02966027523177357,-0.2530459993984219,0.9141707710345992,0.1053140312433243,-0.5913869738578796,-0.7994812726974487,65662.82436754167,unknown,2,2020-03-11 14:13:20.361 +0100,605625226.040729,0,44257.92,100.1227
2020-03-11 14:13:48.056 +0100,65690.51960825,0.0251312255859375,-0.5251007080078125,-0.918304443359375,65690.51458325,-0.5962725778412734,0.1303915367450336,0.6239912478587061,-0.7171866297721863,-0.8125997185707092,-1.15146791934967,-0.07188867777585983,0.0284721851348877,-0.09627449512481689,XArbitraryZVertical,0.3110070179021473,-0.03070515374886666,-0.2598484307068193,0.9136796114843937,0.105520024895668,-0.58427894115448,-0.8046636581420898,65662.82436754167,unknown,2,2020-03-11 14:13:20.361 +0100,605625226.040729,0,44257.92,100.1227
2020-03-11 14:13:48.066 +0100,65690.52965725001,0.0167083740234375,-0.47662353515625,-0.9443359375,65690.52463325001,-0.6089767003220978,0.1299162280239323,0.6159473521229603,-0.5929350256919861,-0.751490592956543,-1.097476601600647,-0.08061082661151886,0.05262607336044312,-0.1089547872543335,XArbitraryZVertical,0.3071200730453238,-0.03167490887117319,-0.2663249905399457,0.9130962853600924,0.105743020772934,-0.5777320265769958,-0.809347927570343,65662.82436754167,unknown,2,2020-03-11 14:13:20.361 +0100,605625226.040729,0,44257.92,100.1227
2020-03-11 14:13:48.076 +0100,65690.53970725001,0.0430908203125,-0.438079833984375,-0.9575958251953125,65690.53468225,-0.6212370974238444,0.1294781752698448,0.6094278798053081,-0.4325735867023468,-0.7407399415969849,-1.049788594245911,-0.08916322141885757,0.09576976299285889,-0.1312223672866821,XArbitraryZVertical,0.3039269726543947,-0.03274813619898408,-0.2724759180806052,0.9123117099328661,0.1058725491166115,-0.5723984241485596,-0.8131119012832642,65662.82436754167,unknown,2,2020-03-11 14:13:20.361 +0100,605625226.040729,0,44257.92,100.1227
2020-03-11 14:13:48.086 +0100,65690.54975725,0.072784423828125,-0.4156036376953125,-0.9732208251953125,65690.54473225,-0.6331270114534744,0.1287105581350785,0.6045587474915167,-0.2721048295497894,-0.761199951171875,-1.001607179641724,-0.0625130757689476,0.1303142309188843,-0.1416469216346741,XArbitraryZVertical,0.3014315199090561,-0.03413768613561291,-0.2783793025242412,0.9113058903728976,0.1056048423051834,-0.5683990716934204,-0.8159472942352295,65662.82436754167,unknown,2,2020-03-11 14:13:20.361 +0100,605625226.040729,0,44257.92,100.1227
2020-03-11 14:13:48.096 +0100,65690.55980725,0.0826263427734375,-0.4038543701171875,-0.9587249755859375,65690.55478225001,-0.6446100828886927,0.1275391148097373,0.6017311106307622,-0.04368434101343155,-0.7642943859100342,-0.939237654209137,-0.03206757456064224,0.1504616141319275,-0.1555578112602234,XArbitraryZVertical,0.2997949588684435,-0.0359484747276462,-0.2839977138826235,0.9100416609291533,0.1048529446125031,-0.5660703778266907,-0.8176614046096802,65662.82436754167,unknown,2,2020-03-11 14:13:20.361 +0100,605625226.040729,0,44257.92,100.1227
2020-03-11 14:13:48.106 +0100,65690.56985625,0.0925445556640625,-0.4387054443359375,-0.9487762451171875,65690.56483125,-0.6559680814838773,0.1262872065736578,0.6011035467036503,0.1545014530420303,-0.7637490034103394,-0.9346623420715332,-0.02124669402837753,0.1616935133934021,-0.1405791044235229,XArbitraryZVertical,0.2991236453625813,-0.03811713760198095,-0.2893964889926443,0.9084721362441954,0.1038739532232285,-0.5655529499053955,-0.8181442618370056,65662.82436754167,unknown,2,2020-03-11 14:13:20.361 +0100,605625226.040729,0,44257.92,100.1227
2020-03-11 14:13:48.116 +0100,65690.57990625,0.1033172607421875,-0.48016357421875,-0.9604644775390625,65690.57488125001,-0.6677956747832782,0.1253094451271751,0.6023612125274035,0.3339316844940186,-0.7612263560295105,-0.9563288688659668,-0.01043948531150818,0.1278791427612305,-0.1312354803085327,XArbitraryZVertical,0.2993113156913033,-0.04053615064925872,-0.2948135078445206,0.9065619179103657,0.1029849797487259,-0.5665897130966187,-0.8175390958786011,65662.82436754167,unknown,2,2020-03-11 14:13:20.361 +0100,605625226.040729,0,44257.92,100.1227
2020-03-11 14:13:48.126 +0100,65690.58995625,0.0906219482421875,-0.5059051513671875,-0.9739227294921875,65690.58493125001,-0.6798245687073801,0.1244961702577661,0.6049575981544701,0.4161426723003387,-0.754853367805481,-0.9336102604866028,0.001181125640869141,0.08855855464935303,-0.1443027257919312,XArbitraryZVertical,0.3000983105462467,-0.04313860921463097,-0.3001810944218337,0.9044176378415585,0.1021370440721512,-0.5687271952629089,-0.8161601424217224,65662.82436754167,unknown,2,2020-03-11 14:13:20.361 +0100,605625226.040729,0,44257.92,100.1227
2020-03-11 14:13:48.136 +0100,65690.60000525,0.0670013427734375,-0.511016845703125,-0.957489013671875,65690.59498125,-0.6917126930624437,0.1237968704567134,0.608289791795895,0.4890550673007965,-0.7329279780387878,-0.9149584174156189,-0.01070886105298996,0.06555461883544922,-0.1595748662948608,XArbitraryZVertical,0.3012123237585004,-0.04580419094884138,-0.3053955815223033,0.9021677008613239,0.1013317033648491,-0.5714648365974426,-0.8143462538719177,65662.82436754167,unknown,2,2020-03-11 14:13:20.361 +0100,605625226.040729,0,44257.92,100.1227
2020-03-11 14:13:48.146 +0100,65690.61005525,0.064697265625,-0.49542236328125,-0.9232177734375,65690.60503025001,-0.703583722674471,0.1232297899085001,0.6125343148489442,0.5981652736663818,-0.7352779507637024,-0.8995786309242249,-0.03356858342885971,0.06392091512680054,-0.1454983353614807,XArbitraryZVertical,0.3027301089764036,-0.0485795419377052,-0.3104939836766053,0.8997710124817304,0.1005708277225494,-0.5749428868293762,-0.8119890093803406,65662.82436754167,unknown,2,2020-03-11 14:13:20.361 +0100,605625226.040729,0,44257.92,100.1227
2020-03-11 14:13:48.159 +0100,65690.62010525001,0.0712738037109375,-0.477294921875,-0.899871826171875,65690.61508025001,-0.7153817670036441,0.122520458567891,0.6180816653602689,0.7427009344100952,-0.7610626220703125,-0.865741491317749,-0.03490536659955978,0.08404535055160522,-0.1143339872360229,XArbitraryZVertical,0.304779738762803,-0.05165489514592061,-0.3154584554437374,0.8971771819455761,0.09960350394248962,-0.5794727802276611,-0.8088821768760681,65662.82436754167,unknown,2,2020-03-11 14:13:20.361 +0100,605625226.040729,0,44257.92,100.1227
2020-03-11 14:13:48.168 +0100,65690.63015525001,0.0901031494140625,-0.4663848876953125,-0.8478851318359375,65690.62513025,-0.727050609449767,0.1214383323024053,0.6257594409837963,1.013160109519958,-0.8093169927597046,-0.8214680552482605,-0.02691161632537842,0.1084129214286804,-0.09532076120376587,XArbitraryZVertical,0.3076839153099019,-0.05528039743939559,-0.3202280939912162,0.8942753956028222,0.09818626940250397,-0.5857129693031311,-0.8045493960380554,65662.82436754167,unknown,2,2020-03-11 14:13:20.361 +0100,605625226.040729,0,44257.92,100.1227
2020-03-11 14:13:48.176 +0100,65690.64020425,0.1049957275390625,-0.469635009765625,-0.80535888671875,65690.63518025,-0.7386821211246519,0.1198585355382006,0.6362649561383459,1.289227724075317,-0.8786752820014954,-0.7827196717262268,-0.006070055067539215,0.1278052926063538,-0.04933327436447144,XArbitraryZVertical,0.3117131940788934,-0.05966419038357573,-0.3247999528638261,0.8909433062106005,0.09617403894662857,-0.5941954255104065,-0.7985501289367676,65662.82436754167,unknown,2,2020-03-11 14:13:20.361 +0100,605625226.040729,0,44257.92,100.1227
2020-03-11 14:13:48.186 +0100,65690.65025425001,0.1020660400390625,-0.5054931640625,-0.79150390625,65690.64522925,-0.7504223637710986,0.1176915148992502,0.6495729478085296,1.556107401847839,-0.9470519423484802,-0.7600260972976685,0.01149003952741623,0.1352060437202454,-0.01452374458312988,XArbitraryZVertical,0.3168182848686773,-0.06488078789783232,-0.3292468802295879,0.8871375392036009,0.09350650012493134,-0.6048463582992554,-0.7908332943916321,65662.82436754167,unknown,2,2020-03-11 14:13:20.361 +0100,605625226.040729,0,44257.92,100.1227
2020-03-11 14:13:48.196 +0100,65690.66030425001,0.0826416015625,-0.573455810546875,-0.8036346435546875,65690.65527925,-0.7621868708170022,0.1151666071271248,0.6650661907926216,1.705723643302917,-0.9783403277397156,-0.7218779325485229,0.01164519786834717,0.1116126179695129,-0.009838700294494629,XArbitraryZVertical,0.3227498385078136,-0.07071680199579315,-0.3335385982904923,0.8829402589797473,0.09042163193225861,-0.6171112060546875,-0.7816633582115173,65662.82436754167,unknown,2,2020-03-11 14:13:20.361 +0100,605625226.040729,0,44257.92,100.1227
2020-03-11 14:13:48.206 +0100,65690.67035425,0.0777587890625,-0.6488037109375,-0.803497314453125,65690.66532925,-0.7737245160995015,0.112528598876657,0.6816790754290912,1.772105932235718,-0.9753586649894714,-0.6868211030960083,-0.00455358624458313,0.05663633346557617,-0.03202807903289795,XArbitraryZVertical,0.3290805230117236,-0.07683563582991225,-0.337609435449811,0.8785340191415141,0.08719594031572342,-0.6300977468490601,-0.771604597568512,65662.82436754167,unknown,2,2020-03-11 14:13:20.361 +0100,605625226.040729,0,44257.92,100.1227
2020-03-11 14:13:48.217 +0100,65690.68040325001,0.0959014892578125,-0.6934051513671875,-0.789886474609375,65690.67537825,-0.7850117029729186,0.1099024453604202,0.6984485999627604,1.722006559371948,-0.9811855554580688,-0.6651942133903503,-0.0062389075756073,-0.005779087543487549,-0.04227501153945923,XArbitraryZVertical,0.3354114941639644,-0.08300012360919584,-0.3415098018635299,0.8740601245278097,0.0839984267950058,-0.6430303454399109,-0.7612202167510986,65662.82436754167,unknown,2,2020-03-11 14:13:20.361 +0100,605625226.040729,0,44257.92,100.1227
2020-03-11 14:13:48.226 +0100,65690.69045325,0.100555419921875,-0.7194671630859375,-0.7724761962890625,65690.68542825,-0.7959899777964237,0.1070790139104155,0.7142553389471267,1.578869581222534,-0.9996923804283142,-0.6440631151199341,0.01514981687068939,-0.03835588693618774,-0.03863072395324707,XArbitraryZVertical,0.3412310971959184,-0.08907595671939583,-0.3453512220432211,0.8696891495331445,0.08075236529111862,-0.6550549268722534,-0.751253604888916,65662.82436754167,unknown,2,2020-03-11 14:13:20.361 +0100,605625226.040729,0,44257.92,100.1227
2020-03-11 14:13:48.237 +0100,65690.70050325,0.0940704345703125,-0.6957550048828125,-0.766082763671875,65690.69547825001,-0.8066048239304764,0.103908959011568,0.7289039497706398,1.509118437767029,-1.032776594161987,-0.6254100799560547,0.02318927645683289,-0.05342036485671997,-0.03059232234954834,XArbitraryZVertical,0.3464401417110895,-0.09507047202788478,-0.3491611287963573,0.8654635926570535,0.07736679911613464,-0.6660524606704712,-0.7418816685676575,65662.82436754167,unknown,2,2020-03-11 14:13:20.361 +0100,605625226.040729,0,44257.92,100.1227
2020-03-11 14:13:48.247 +0100,65690.71055225001,0.0792083740234375,-0.642791748046875,-0.73431396484375,65690.70552825001,-0.8170760863651201,0.1002019902690826,0.7432317072305537,1.478354096412659,-1.104871988296509,-0.6222885847091675,0.02041715383529663,-0.01908981800079346,-0.03348827362060547,XArbitraryZVertical,0.351356592928035,-0.1012540823538529,-0.3529983269849608,0.861213179698059,0.07365387678146362,-0.6766709089279175,-0.7325922846794128,65662.82436754167,unknown,2,2020-03-11 14:13:20.361 +0100,605625226.040729,0,44257.92,100.1227
2020-03-11 14:13:48.257 +0100,65690.72060225,0.0746917724609375,-0.6577301025390625,-0.729766845703125,65690.71557725,-0.8273992127639924,0.09592381259983332,0.7571139461735752,1.416530847549438,-1.149274349212646,-0.596843421459198,0.009596362709999084,0.0440288782119751,-0.01083165407180786,XArbitraryZVertical,0.3559217421015179,-0.1076092644905649,-0.3568838383301757,0.8569561455432161,0.06961259245872498,-0.6868266463279724,-0.7234799265861511,65662.82436754167,unknown,2,2020-03-11 14:13:20.361 +0100,605625226.040729,0,44257.92,100.1227
2020-03-11 14:13:48.267 +0100,65690.73065225,0.0758819580078125,-0.702850341796875,-0.7455596923828125,65690.72562725001,-0.8370775028091951,0.09100168772813388,0.7704118216778154,1.350754022598267,-1.155840635299683,-0.5400919914245605,0.00947745144367218,0.03869467973709106,-0.01510989665985107,XArbitraryZVertical,0.3600930394200597,-0.1140428163930383,-0.360637723160268,0.8527998048224298,0.06521488726139069,-0.6964308023452759,-0.7146545052528381,65662.82436754167,unknown,2,2020-03-11 14:13:20.361 +0100,605625226.040729,0,44257.92,100.1227
2020-03-11 14:13:48.277 +0100,65690.74070225,0.0655059814453125,-0.73272705078125,-0.73388671875,65690.73567725001,-0.8461144972106469,0.08535920594266763,0.7832509868927414,1.30662214756012,-1.223087906837463,-0.5175340175628662,0.01546835899353027,0.002730309963226318,-0.03951376676559448,XArbitraryZVertical,0.363914367143559,-0.120601175213167,-0.3642719994934672,0.8487211038854906,0.06041410192847252,-0.705586850643158,-0.7060433626174927,65662.82436754167,unknown,2,2020-03-11 14:13:20.361 +0100,605625226.040729,0,44257.92,100.1227
