loggingTime(txt),accelerometerTimestamp_sinceReboot(s),accelerometerAccelerationX(G),accelerometerAccelerationY(G),accelerometerAccelerationZ(G),motionTimestamp_sinceReboot(s),motionYaw(rad),motionRoll(rad),motionPitch(rad),motionRotationRateX(rad/s),motionRotationRateY(rad/s),motionRotationRateZ(rad/s),motionUserAccelerationX(G),motionUserAccelerationY(G),motionUserAccelerationZ(G),motionAttitudeReferenceFrame(txt),motionQuaternionX(R),motionQuaternionY(R),motionQuaternionZ(R),motionQuaternionW(R),motionGravityX(G),motionGravityY(G),motionGravityZ(G),activityTimestamp_sinceReboot(s),activity(txt),activityActivityConfidence(Z),activityActivityStartDate(txt),altimeterTimestamp_sinceReboot(s),altimeterReset(bool),altimeterRelativeAltitude(m),altimeterPressure(kPa)
2020-03-11 15:31:46.570 +0100,67379.91287304167,0.03765869140625,-0.4680938720703125,-0.88311767578125,67379.90784804166,-0.6859532285917913,-0.03067015749974354,0.3961649705342603,-0.1112417131662369,-0.1921220123767853,-0.1677799373865128,0.1506503969430923,-0.01609507203102112,-0.006200313568115234,XArbitraryZVertical,0.1802504074852655,-0.08032995619906036,-0.3325190344654108,0.9222190311069973,-0.02829024568200111,-0.3858831822872162,-0.9221137762069702,67309.31350925,walking,2,2020-03-11 15:30:35.938 +0100,605629905.091099,0,44253.69,100.145
2020-03-11 15:31:46.583 +0100,67379.92292204167,0.0550689697265625,-0.4216766357421875,-0.916290283203125,67379.91789804168,-0.6875944647989901,-0.03176842944855501,0.3947245316359424,-0.1509515792131424,-0.2070945799350739,-0.1159577518701553,0.06697919219732285,-0.08354073762893677,0.03951919078826904,XArbitraryZVertical,0.1793358554327996,-0.08074823058814685,-0.3334117392503914,0.9220384319019543,-0.02932058461010456,-0.3845539093017578,-0.9226367473602295,67309.31350925,walking,2,2020-03-11 15:30:35.938 +0100,605629905.091099,0,44253.69,100.145
2020-03-11 15:31:46.584 +0100,67379.93297204167,-0.0162506103515625,-0.3922576904296875,-0.9091796875,67379.92794704167,-0.68858486105996,-0.03386589690940493,0.3930902625601383,-0.1159144416451454,-0.2546968758106232,-0.06317932903766632,0.0863458439707756,-0.03863263130187988,0.006909966468811035,XArbitraryZVertical,0.1781904971243111,-0.08153589931408232,-0.3340973384944468,0.9219429724506427,-0.03127695620059967,-0.3830448091030121,-0.9232000708580017,67309.31350925,walking,2,2020-03-11 15:30:35.938 +0100,605629905.091099,0,44253.69,100.145
2020-03-11 15:31:46.585 +0100,67379.94302204167,-0.0416107177734375,-0.393341064453125,-0.90008544921875,67379.93799704168,-0.6891224081809144,-0.03562686957511059,0.3922917315942731,-0.01227939501404762,-0.1482063829898834,-0.0299859531223774,0.01666281372308731,-0.009951472282409668,0.01426941156387329,XArbitraryZVertical,0.1775051348085095,-0.08226449267019587,-0.3345216109308137,0.9218565911726612,-0.03291352093219757,-0.3823070526123047,-0.9234489798545837,67309.31350925,walking,2,2020-03-11 15:30:35.938 +0100,605629905.091099,0,44253.69,100.145
2020-03-11 15:31:46.586 +0100,67379.95307104167,-0.02569580078125,-0.432220458984375,-0.899810791015625,67379.94804604167,-0.689271670629782,-0.03680428647259152,0.392122494447578,-6.817281246185303e-07,-0.1071349829435349,0.005243707448244095,-0.007607661187648773,-0.01119121909141541,0.02338892221450806,XArbitraryZVertical,0.1772237806702131,-0.08279266295267336,-0.3346989754395893,0.9217990708089872,-0.03400316461920738,-0.3821506798267365,-0.9234741926193237,67309.31350925,walking,2,2020-03-11 15:30:35.938 +0100,605629905.091099,0,44253.69,100.145
2020-03-11 15:31:46.588 +0100,67379.96312104167,-0.03509521484375,-0.43035888671875,-0.9001922607421875,67379.95809604166,-0.6890419969049313,-0.0375749881046712,0.3920528880627498,0.01497933268547058,-0.04421034082770348,0.04267443716526031,0.00901997834444046,-0.05013486742973328,0.02366364002227783,XArbitraryZVertical,0.1770721759217686,-0.08311613659941072,-0.3346630865041105,0.9218120806100164,-0.03471587598323822,-0.3820863366127014,-0.9234743118286133,67309.31350925,walking,2,2020-03-11 15:30:35.938 +0100,605629905.091099,0,44253.69,100.145
2020-03-11 15:31:46.598 +0100,67379.97317004167,-0.022552490234375,-0.4395751953125,-0.9066009521484375,67379.96814504167,-0.6882883281174372,-0.03813220379989118,0.3922795666844033,0.04680410772562027,-0.01313391514122486,0.09262628108263016,0.0001318380236625671,-0.04806384444236755,0.02317613363265991,XArbitraryZVertical,0.1771151046882128,-0.08334336063219819,-0.3343595638535602,0.921893472945458,-0.03522714227437973,-0.3822958171367645,-0.9233682751655579,67309.31350925,walking,2,2020-03-11 15:30:35.938 +0100,605629905.091099,0,44253.69,100.145
2020-03-11 15:31:46.609 +0100,67379.98322004167,-0.036712646484375,-0.425750732421875,-0.905853271484375,67379.97819504167,-0.6869921448683574,-0.03888816259036799,0.3923873659390953,0.09979142248630524,0.05401316657662392,0.1008690297603607,0.01337096840143204,-0.05718061327934265,0.01669937372207642,XArbitraryZVertical,0.1770927470061861,-0.08359469157109814,-0.3338263868719775,0.9220682489563038,-0.0359235592186451,-0.3823954164981842,-0.9233001470565796,67309.31350925,walking,2,2020-03-11 15:30:35.938 +0100,605629905.091099,0,44253.69,100.145
2020-03-11 15:31:46.618 +0100,67379.99326904168,-0.015960693359375,-0.4264373779296875,-0.914459228515625,67379.98824504168,-0.6858827981108402,-0.03814023429072658,0.3937841854817288,0.1636296063661575,0.07714100182056427,0.1265542209148407,-0.001500159502029419,-0.04206588864326477,0.01693904399871826,XArbitraryZVertical,0.1779095587467677,-0.08337938917166071,-0.3332150713830559,0.9221516149292953,-0.03521258383989334,-0.3836857080459595,-0.9227921366691589,67309.31350925,walking,2,2020-03-11 15:30:35.938 +0100,605629905.091099,0,44253.69,100.145
2020-03-11 15:31:46.628 +0100,67380.00331904167,-0.0186614990234375,-0.4238128662109375,-0.901458740234375,67379.99829404167,-0.6844932290768859,-0.03769279714478466,0.3958498065088067,0.1762620359659195,0.07366663962602615,0.1304078102111816,0.01880895346403122,-0.0408458411693573,0.007554769515991211,XArbitraryZVertical,0.1789969727634481,-0.08338563284613829,-0.3324844827598337,0.9222043120152916,-0.03476974740624428,-0.3855924308300018,-0.9220138192176819,67309.31350925,walking,2,2020-03-11 15:30:35.938 +0100,605629905.091099,0,44253.69,100.145
2020-03-11 15:31:46.644 +0100,67380.01336904167,-0.0130767822265625,-0.412933349609375,-0.9035491943359375,67380.00834404166,-0.6831658944525311,-0.03712822755538434,0.3976915096749255,0.1724032908678055,0.07808250188827515,0.1263507902622223,0.01556118577718735,-0.03652277588844299,0.0198635458946228,XArbitraryZVertical,0.1799975628687208,-0.08330561935283849,-0.3317768216951282,0.9222716509218756,-0.03422278538346291,-0.3872910439968109,-0.9213221073150635,67309.31350925,walking,2,2020-03-11 15:30:35.938 +0100,605629905.091099,0,44253.69,100.145
2020-03-11 15:31:46.652 +0100,67380.02341804167,-0.000732421875,-0.413665771484375,-0.912200927734375,67380.01839304167,-0.6816889974553537,-0.03703412631657167,0.3995020553174458,0.1860986053943634,0.03658699244260788,0.1406791359186172,0.02103318274021149,-0.02397465705871582,0.01707404851913452,XArbitraryZVertical,0.1809118785855783,-0.08342271731258936,-0.3310427858110076,0.9223459558222805,-0.03411006554961205,-0.3889596462249756,-0.9206230640411377,67309.31350925,walking,2,2020-03-11 15:30:35.938 +0100,605629905.091099,0,44253.69,100.145
2020-03-11 15:31:46.659 +0100,67380.03346804167,-0.003936767578125,-0.410186767578125,-0.9163970947265625,67380.02844304167,-0.6800262658458518,-0.03761413835122046,0.4013270360048879,0.1807728111743927,-0.01294380985200405,0.1501788944005966,0.03388475626707077,-0.02302643656730652,0.007691502571105957,XArbitraryZVertical,0.1817294382469401,-0.08383481402301955,-0.3302836829547861,0.9224200028555473,-0.03461728245019913,-0.3906402885913849,-0.9198922514915466,67309.31350925,walking,2,2020-03-11 15:30:35.938 +0100,605629905.091099,0,44253.69,100.145
2020-03-11 15:31:46.668 +0100,67380.04351704167,-0.0075225830078125,-0.4080047607421875,-0.9211273193359375,67380.03849204167,-0.6782928624026933,-0.03864646685720678,0.4032705645247837,0.1787211149930954,-0.06083570420742035,0.1572794169187546,0.03160063177347183,-0.01775908470153809,0.002698719501495361,XArbitraryZVertical,0.1825309509299657,-0.08446670516001517,-0.3295306587009006,0.9224734324030109,-0.03553749248385429,-0.3924286365509033,-0.9190956354141235,67309.31350925,walking,2,2020-03-11 15:30:35.938 +0100,605629905.091099,0,44253.69,100.145
2020-03-11 15:31:46.679 +0100,67380.05356704167,-0.019134521484375,-0.4170074462890625,-0.9257049560546875,67380.04854204167,-0.6764827423471805,-0.04022951860453394,0.4051522802509016,0.1757760941982269,-0.1079309731721878,0.1654185950756073,0.02943996340036392,-0.01384702324867249,-0.002828359603881836,XArbitraryZVertical,0.1832176602882619,-0.08533403909647021,-0.3287948906070302,0.9225200352246743,-0.03696266189217567,-0.3941587209701538,-0.9182987809181213,67309.31350925,walking,2,2020-03-11 15:30:35.938 +0100,605629905.091099,0,44253.69,100.145
2020-03-11 15:31:46.689 +0100,67380.06361604168,-0.027496337890625,-0.41119384765625,-0.92913818359375,67380.05859104167,-0.674510058552663,-0.04217957834597329,0.4069107520240531,0.146931916475296,-0.1367447674274445,0.1845334321260452,0.01958939433097839,-0.02123424410820007,-0.008173704147338867,XArbitraryZVertical,0.1837956765308701,-0.08633441237375607,-0.3280218687351579,0.922587170240484,-0.03872403874993324,-0.3957742154598236,-0.9175310134887695,67309.31350925,walking,2,2020-03-11 15:30:35.938 +0100,605629905.091099,0,44253.69,100.145
2020-03-11 15:31:46.699 +0100,67380.07366604167,-0.04522705078125,-0.4075775146484375,-0.9273223876953125,67380.06864104167,-0.6723119910725278,-0.04457375023738117,0.4081921518016992,0.09902878850698471,-0.1651200950145721,0.2093908786773682,0.01340155303478241,-0.01424422860145569,-0.01220971345901489,XArbitraryZVertical,0.1840919983848675,-0.08744134579259361,-0.3271980670914602,0.9227163228069345,-0.04089802131056786,-0.3969506621360779,-0.9169282913208008,67309.31350925,walking,2,2020-03-11 15:30:35.938 +0100,605629905.091099,0,44253.69,100.145
2020-03-11 15:31:46.709 +0100,67380.08371504168,-0.0650482177734375,-0.386749267578125,-0.9268951416015625,67380.07869104166,-0.669938496848857,-0.04706385931891006,0.4090073274210904,0.07006797939538956,-0.1585825681686401,0.2223250567913055,-0.002061277627944946,-0.009879827499389648,-0.0108221173286438,XArbitraryZVertical,0.1841669474002607,-0.08850139421441403,-0.3263135836354434,0.922913480513212,-0.0431659072637558,-0.3976987302303314,-0.9165000915527344,67309.31350925,walking,2,2020-03-11 15:30:35.938 +0100,605629905.091099,0,44253.69,100.145
2020-03-11 15:31:46.719 +0100,67380.09376504167,-0.080352783203125,-0.3741912841796875,-0.930816650390625,67380.08874004167,-0.667542297526299,-0.04940173428236038,0.4098757061971219,0.1030457690358162,-0.1312488913536072,0.2099651545286179,-0.019756980240345,0.01174497604370117,-0.01084351539611816,XArbitraryZVertical,0.1842948234756676,-0.08949706758848945,-0.3254037894839009,0.9231131840060686,-0.04529137909412384,-0.3984953463077545,-0.9160513877868652,67309.31350925,walking,2,2020-03-11 15:30:35.938 +0100,605629905.091099,0,44253.69,100.145
2020-03-11 15:31:46.729 +0100,67380.10381404166,-0.08544921875,-0.37066650390625,-0.92889404296875,67380.09879004167,-0.6654415743402765,-0.05133270477159455,0.4109663188091474,0.1146646067500114,-0.1071302443742752,0.1737983673810959,-0.03331510722637177,0.02530297636985779,-0.0152888298034668,XArbitraryZVertical,0.184580761368951,-0.09036660771394898,-0.324588561648766,0.9232582959270818,-0.04703783243894577,-0.3994953632354736,-0.9155276417732239,67309.31350925,walking,2,2020-03-11 15:30:35.938 +0100,605629905.091099,0,44253.69,100.145
2020-03-11 15:31:46.739 +0100,67380.11386404168,-0.100311279296875,-0.3589019775390625,-0.924224853515625,67380.10883904167,-0.6636252744781667,-0.05281521913117445,0.4119966567353007,0.09786657243967056,-0.06846442818641663,0.1604428887367249,-0.03707607090473175,0.02977204322814941,-0.01384842395782471,XArbitraryZVertical,0.1849002431737628,-0.09104508778698144,-0.3238650594686774,0.9233818633179129,-0.04837330803275108,-0.4004397094249725,-0.9150453805923462,67309.31350925,walking,2,2020-03-11 15:30:35.938 +0100,605629905.091099,0,44253.69,100.145
2020-03-11 15:31:46.749 +0100,67380.12391404167,-0.098541259765625,-0.3634185791015625,-0.9292449951171875,67380.11888904167,-0.6619694409765525,-0.05364326012792356,0.4131041973072599,0.1345239132642746,-0.0001391693949699402,0.1463212072849274,-0.05120427161455154,0.04255124926567078,-0.009663045406341553,XArbitraryZVertical,0.1853551934411407,-0.09144759407116786,-0.3231539375313945,0.9234999579320692,-0.04910717904567719,-0.4014543294906616,-0.9145615696907043,67309.31350925,walking,2,2020-03-11 15:30:35.938 +0100,605629905.091099,0,44253.69,100.145
2020-03-11 15:31:46.760 +0100,67380.13396304168,-0.0819244384765625,-0.3783721923828125,-0.93560791015625,67380.12893804167,-0.6604474996395221,-0.05403217252898122,0.4144805662899556,0.1464630216360092,0.01250960398465395,0.1244545131921768,-0.04910844564437866,0.03929489850997925,-0.01525497436523438,XArbitraryZVertical,0.1860001482228175,-0.09170084299245973,-0.3224585297324259,0.9235882310270594,-0.04943297058343887,-0.4027145206928253,-0.913989782333374,67309.31350925,walking,2,2020-03-11 15:30:35.938 +0100,605629905.091099,0,44253.69,100.145
2020-03-11 15:31:46.769 +0100,67380.14401304167,-0.0813751220703125,-0.390167236328125,-0.9355316162109375,67380.13898804167,-0.6591899191219049,-0.05431710836819628,0.4158574847775888,0.1295993477106094,0.01350402925163507,0.1017430797219276,-0.03226137161254883,0.02560111880302429,-0.0221865177154541,XArbitraryZVertical,0.1866503372054827,-0.09192978821994552,-0.3218756185745452,0.9236376709521261,-0.049663245677948,-0.4039744734764099,-0.9134211540222168,67309.31350925,walking,2,2020-03-11 15:30:35.938 +0100,605629905.091099,0,44253.69,100.145
2020-03-11 15:31:46.780 +0100,67380.15406204166,-0.0675048828125,-0.4008331298828125,-0.9400634765625,67380.14903704167,-0.657990487783651,-0.05466103127800161,0.4170149669174557,0.1099424287676811,-0.001826740801334381,0.1077990829944611,-0.03142349421977997,0.01486465334892273,-0.0225948691368103,XArbitraryZVertical,0.1871869052761673,-0.09215648165190408,-0.3213297462750676,0.9236965628330732,-0.04995181038975716,-0.4050330519676208,-0.9129365086555481,67309.31350925,walking,2,2020-03-11 15:30:35.938 +0100,605629905.091099,0,44253.69,100.145
2020-03-11 15:31:46.789 +0100,67380.16411204168,-0.0594024658203125,-0.4195709228515625,-0.9356231689453125,67380.15908704167,-0.6567027087713179,-0.05530400404389322,0.4180497015951594,0.1091634556651115,-0.03026850149035454,0.1194450855255127,-0.01698945462703705,0.005144625902175903,-0.02757799625396729,XArbitraryZVertical,0.1876229527736955,-0.09249330735606522,-0.3207737876658143,0.9237676430307006,-0.05051559954881668,-0.4059788882732391,-0.9124852418899536,67309.31350925,walking,2,2020-03-11 15:30:35.938 +0100,605629905.091099,0,44253.69,100.145
2020-03-11 15:31:46.799 +0100,67380.17416104166,-0.055816650390625,-0.4157562255859375,-0.9221954345703125,67380.16913704167,-0.6552284043170639,-0.05640974226758524,0.4189348361996473,0.09765694290399551,-0.06528440862894058,0.1338807791471481,-0.007898382842540741,-0.01278448104858398,-0.02355325222015381,XArbitraryZVertical,0.1879246445960318,-0.09300260916183621,-0.3201784509399334,0.9238617178640866,-0.05150425806641579,-0.406787633895874,-0.9120696783065796,67309.31350925,walking,2,2020-03-11 15:30:35.938 +0100,605629905.091099,0,44253.69,100.145
2020-03-11 15:31:46.810 +0100,67380.18421104168,-0.06781005859375,-0.417083740234375,-0.9011993408203125,67380.17918604167,-0.6535913243268041,-0.05789922853519162,0.4196338700370667,0.08385750651359558,-0.0782201811671257,0.1428700089454651,-0.002970606088638306,-0.008331358432769775,-0.01048731803894043,XArbitraryZVertical,0.1880870823194882,-0.09364466842371562,-0.3195480859082284,0.9239820277124844,-0.05284624546766281,-0.407426118850708,-0.911707878112793,67309.31350925,walking,2,2020-03-11 15:30:35.938 +0100,605629905.091099,0,44253.69,100.145
2020-03-11 15:31:46.819 +0100,67380.19426004167,-0.056610107421875,-0.427490234375,-0.888641357421875,67380.18923604167,-0.6519480585525298,-0.05943573011959039,0.4200707199888042,0.05512325465679169,-0.07689511030912399,0.1414510756731033,-0.01357379555702209,-0.009259998798370361,0.01024878025054932,XArbitraryZVertical,0.188121714460465,-0.09426721498248837,-0.3189247023509853,0.9241270730420137,-0.05423644557595253,-0.4078250229358673,-0.9114478230476379,67309.31350925,walking,2,2020-03-11 15:30:35.938 +0100,605629905.091099,0,44253.69,100.145
2020-03-11 15:31:46.830 +0100,67380.20431004168,-0.0552215576171875,-0.42724609375,-0.8850555419921875,67380.19928504167,-0.6502412580768239,-0.06109504186090742,0.4203011108048683,0.04993914067745209,-0.08529791980981827,0.1511311382055283,-0.0008672922849655151,-0.01945620775222778,0.02262169122695923,XArbitraryZVertical,0.1880450282019786,-0.09490880952721556,-0.3182875555196514,0.9242966774399991,-0.055743008852005,-0.4080353677272797,-0.9112627506256104,67309.31350925,walking,2,2020-03-11 15:30:35.938 +0100,605629905.091099,0,44253.69,100.145
2020-03-11 15:31:46.839 +0100,67380.21436004167,-0.05810546875,-0.4257965087890625,-0.881805419921875,67380.20933504167,-0.6484397560815952,-0.06278830540231628,0.4204582127326433,0.03725842759013176,-0.07790116220712662,0.1577612161636353,0.00206013023853302,-0.01906865835189819,0.02604782581329346,XArbitraryZVertical,0.1879345525521262,-0.09554610776953021,-0.3176110929070184,0.9244861763703162,-0.05728191509842873,-0.4081788063049316,-0.9111030697822571,67309.31350925,walking,2,2020-03-11 15:30:35.938 +0100,605629905.091099,0,44253.69,100.145
2020-03-11 15:31:46.850 +0100,67380.22440904166,-0.0555572509765625,-0.4241943359375,-0.882720947265625,67380.21938404167,-0.6465686838513648,-0.06438782205424158,0.4204609826928922,0.01255600899457932,-0.07145178318023682,0.1703286617994308,0.0006334036588668823,-0.01761656999588013,0.02920401096343994,XArbitraryZVertical,0.1877717701476017,-0.09611025097104399,-0.3168962996715087,0.9247059924349061,-0.05873909220099449,-0.4081813395023346,-0.9110091924667358,67309.31350925,walking,2,2020-03-11 15:30:35.938 +0100,605629905.091099,0,44253.69,100.145
2020-03-11 15:31:46.860 +0100,67380.23445904168,-0.0571746826171875,-0.41815185546875,-0.8914947509765625,67380.22943404167,-0.6446783132276603,-0.065882500781885,0.4203741958773563,0.01864293031394482,-0.05939805507659912,0.1683946847915649,0.004545547068119049,-0.0160936713218689,0.02823507785797119,XArbitraryZVertical,0.1875859685011963,-0.09661083092356328,-0.3161639764848597,0.9249422343283575,-0.06010302528738976,-0.4081020951271057,-0.9109557271003723,67309.31350925,walking,2,2020-03-11 15:30:35.938 +0100,605629905.091099,0,44253.69,100.145
2020-03-11 15:31:46.870 +0100,67380.24450804167,-0.065399169921875,-0.4056854248046875,-0.8925323486328125,67380.23948404167,-0.6428955682977721,-0.06709300499917423,0.4205969389586056,0.06042259931564331,-0.03123991936445236,0.1467021703720093,0.004024676978588104,-0.009847849607467651,0.01929712295532227,XArbitraryZVertical,0.1875846428056946,-0.0970372099279706,-0.3154490375851153,0.9251419641386393,-0.061199601739645,-0.408305436372757,-0.9107915759086609,67309.31350925,walking,2,2020-03-11 15:30:35.938 +0100,605629905.091099,0,44253.69,100.145
2020-03-11 15:31:46.880 +0100,67380.25455804168,-0.0719757080078125,-0.3944244384765625,-0.8943023681640625,67380.24953304167,-0.6413936476600386,-0.06788562678810495,0.4212057427110886,0.07576174288988113,-0.005181168671697378,0.1193416193127632,-0.003494799137115479,0.003174304962158203,0.01796251535415649,XArbitraryZVertical,0.1878157361577296,-0.09735478775901003,-0.314818112104218,0.9252765845399822,-0.06190462037920952,-0.4088611006736755,-0.9104945659637451,67309.31350925,walking,2,2020-03-11 15:30:35.938 +0100,605629905.091099,0,44253.69,100.145
2020-03-11 15:31:46.890 +0100,67380.26460704167,-0.0627899169921875,-0.40228271484375,-0.895111083984375,67380.25958304167,-0.6401522045920197,-0.06823500651496857,0.4219806887581078,0.09254365414381027,0.0282572153955698,0.0995255634188652,-0.009774856269359589,0.01514238119125366,0.01585441827774048,XArbitraryZVertical,0.1881815477689318,-0.09751638142028099,-0.3142633059197296,0.9253738221003323,-0.06220110133290291,-0.409568190574646,-0.9101565480232239,67309.31350925,walking,2,2020-03-11 15:30:35.938 +0100,605629905.091099,0,44253.69,100.145
2020-03-11 15:31:46.900 +0100,67380.27465704166,-0.048614501953125,-0.4066162109375,-0.901092529296875,67380.26963204167,-0.6389939873010996,-0.06837708178863448,0.4229275240100656,0.1062429696321487,0.03741060569882393,0.09589970856904984,-0.0004862695932388306,0.008147627115249634,0.01464962959289551,XArbitraryZVertical,0.1886559750232409,-0.09761521161565813,-0.313724585298485,0.9254496394702403,-0.06230388954281807,-0.4104318022727966,-0.9097604155540466,67309.31350925,walking,2,2020-03-11 15:30:35.938 +0100,605629905.091099,0,44253.69,100.145
2020-03-11 15:31:46.910 +0100,67380.28470704168,-0.0521240234375,-0.4048309326171875,-0.9083251953125,67380.27968204167,-0.6379428920038395,-0.06842840645035943,0.4241253281459084,0.1250936239957809,0.03619034215807915,0.07796491682529449,0.01370217651128769,0.004906147718429565,0.008173823356628418,XArbitraryZVertical,0.1892562318421849,-0.09771923159371185,-0.3132225962983257,0.9254860934253092,-0.06231692433357239,-0.4115237593650818,-0.9092660546302795,67309.31350925,walking,2,2020-03-11 15:30:35.938 +0100,605629905.091099,0,44253.69,100.145
2020-03-11 15:31:46.920 +0100,67380.29475604167,-0.0615386962890625,-0.3919219970703125,-0.90924072265625,67380.28973104167,-0.6371185103104743,-0.068327152820623,0.4254838492398077,0.1417898833751678,0.04974015057086945,0.05656668543815613,0.01006236672401428,0.007929205894470215,0.0003888607025146484,XArbitraryZVertical,0.1899440820808842,-0.0977975438770169,-0.3128082196757856,0.9254770768088288,-0.06218662858009338,-0.4127615392208099,-0.9087137579917908,67309.31350925,walking,2,2020-03-11 15:30:35.938 +0100,605629905.091099,0,44253.69,100.145
2020-03-11 15:31:46.930 +0100,67380.30480604168,-0.0570831298828125,-0.3971405029296875,-0.9054412841796875,67380.29978104167,-0.6365114537734995,-0.06797035060775257,0.4272242909872529,0.1973247826099396,0.07191842049360275,0.03090579435229301,0.0002745762467384338,0.02242276072502136,-0.001222610473632812,XArbitraryZVertical,0.1908388139945512,-0.09783480612543652,-0.3124632757587047,0.9254055816521846,-0.06181351095438004,-0.4143461883068085,-0.9080178141593933,67309.31350925,walking,2,2020-03-11 15:30:35.938 +0100,605629905.091099,0,44253.69,100.145
2020-03-11 15:31:46.940 +0100,67380.31485504167,-0.048248291015625,-0.4096221923828125,-0.898651123046875,67380.30983004168,-0.6360945955667852,-0.06734779671020244,0.4293125350640161,0.1993130892515182,0.08108127862215042,0.01645991019904613,0.004106469452381134,0.01910379528999329,0.001749873161315918,XArbitraryZVertical,0.1919272873734399,-0.09781872138134738,-0.3121742449804067,0.9252797133892248,-0.06118984520435333,-0.4162458181381226,-0.9071907997131348,67309.31350925,walking,2,2020-03-11 15:30:35.938 +0100,605629905.091099,0,44253.69,100.145
2020-03-11 15:31:46.950 +0100,67380.32490504168,-0.041412353515625,-0.419097900390625,-0.89862060546875,67380.31988004167,-0.6358569503507023,-0.0666464321898453,0.4311573445654399,0.1654350161552429,0.07614218443632126,0.00261999387294054,0.0122537836432457,0.008298784494400024,0.007815003395080566,XArbitraryZVertical,0.1929058870472658,-0.09774671919987669,-0.3119639629863235,0.9251547665531579,-0.0605023168027401,-0.4179224967956543,-0.9064657688140869,67309.31350925,walking,2,2020-03-11 15:30:35.938 +0100,605629905.091099,0,44253.69,100.145
2020-03-11 15:31:46.960 +0100,67380.33495404167,-0.0353851318359375,-0.4228515625,-0.8981475830078125,67380.32993004167,-0.6357147610586742,-0.06603056728377152,0.432663482427758,0.1439647525548935,0.06159252300858498,0.002973628230392933,0.01848985254764557,0.0001909136772155762,0.007253527641296387,XArbitraryZVertical,0.1937088864382032,-0.09767281787089617,-0.3118114340316209,0.9250461839330887,-0.05990244448184967,-0.4192903339862823,-0.9058737754821777,67309.31350925,walking,2,2020-03-11 15:30:35.938 +0100,605629905.091099,0,44253.69,100.145
2020-03-11 15:31:46.970 +0100,67380.34500404166,-0.0338287353515625,-0.4286651611328125,-0.8917694091796875,67380.33997904167,-0.6354851314897777,-0.065642375360931,0.4339672933300956,0.1297463923692703,0.04265957698225975,0.01752753742039204,0.02412950992584229,-0.002379447221755981,0.007203459739685059,XArbitraryZVertical,0.1943865025862955,-0.09766545267947088,-0.311643704054517,0.9249613384452023,-0.05951487645506859,-0.4204736351966858,-0.9053506851196289,67309.31350925,walking,2,2020-03-11 15:30:35.938 +0100,605629905.091099,0,44253.69,100.145
2020-03-11 15:31:46.980 +0100,67380.35505304167,-0.0380706787109375,-0.4339447021484375,-0.8889312744140625,67380.35002904167,-0.6350724651042443,-0.06544480133839409,0.4351033828024927,0.1071993559598923,0.03357701376080513,0.0425322912633419,0.02547574788331985,-0.007162600755691528,0.01311612129211426,XArbitraryZVertical,0.1949653429909105,-0.09770324856220247,-0.3114126656492349,0.9249133466327299,-0.05930472165346146,-0.4215041399002075,-0.9048851728439331,67309.31350925,walking,2,2020-03-11 15:30:35.938 +0100,605629905.091099,0,44253.69,100.145
2020-03-11 15:31:46.990 +0100,67380.36510304167,-0.0391693115234375,-0.43658447265625,-0.8859405517578125,67380.36007804167,-0.6344837845033472,-0.0653988513438358,0.4359781207449446,0.08175418525934219,0.01856930181384087,0.05039607360959053,0.02116808295249939,-0.01164907217025757,0.01558870077133179,XArbitraryZVertical,0.1954077270598716,-0.09775482858685791,-0.3111197546351791,0.9249130444089342,-0.05923902243375778,-0.4222972393035889,-0.9045196175575256,67309.31350925,walking,2,2020-03-11 15:30:35.938 +0100,605629905.091099,0,44253.69,100.145
2020-03-11 15:31:47.000 +0100,67380.37515304168,-0.0472412109375,-0.4269256591796875,-0.881500244140625,67380.37012804167,-0.6338816141591641,-0.06547761545705612,0.4366061243126362,0.06330548971891403,0.01366288494318724,0.0539763905107975,0.02012334764003754,-0.01371970772743225,0.01830995082855225,XArbitraryZVertical,0.1957167352325304,-0.09782579291380362,-0.3108373218475038,0.9249351820560474,-0.05929290503263474,-0.4228664040565491,-0.9042501449584961,67309.31350925,walking,2,2020-03-11 15:30:35.938 +0100,605629905.091099,0,44253.69,100.145
2020-03-11 15:31:47.010 +0100,67380.38520204167,-0.052825927734375,-0.4164276123046875,-0.8706207275390625,67380.38017704168,-0.6330903192462151,-0.06553723214427465,0.4372085287850674,0.09156668931245804,0.04608367756009102,0.07540817558765411,0.01208865642547607,-0.003515064716339111,0.02249240875244141,XArbitraryZVertical,0.1960261218532311,-0.09786537750271032,-0.3104660338542153,0.92499016446837,-0.05933011695742607,-0.4234122335910797,-0.903992235660553,67309.31350925,walking,2,2020-03-11 15:30:35.938 +0100,605629905.091099,0,44253.69,100.145
2020-03-11 15:31:47.020 +0100,67380.39525204166,-0.054931640625,-0.42327880859375,-0.86541748046875,67380.39022704167,-0.6320398104925312,-0.06534945214820466,0.438247523320626,0.1448993235826492,0.07577449828386307,0.09552726149559021,0.006305418908596039,0.00792396068572998,0.03294354677200317,XArbitraryZVertical,0.1965894817652745,-0.09782955025993434,-0.3099424329410007,0.9250499943130502,-0.05913160368800163,-0.4243532419204712,-0.903563916683197,67309.31350925,walking,2,2020-03-11 15:30:35.938 +0100,605629905.091099,0,44253.69,100.145
2020-03-11 15:31:47.030 +0100,67380.40530104167,-0.0668182373046875,-0.4260101318359375,-0.853302001953125,67380.40027604168,-0.6307925024659388,-0.06489492370678379,0.4397562772111948,0.1718862056732178,0.1176569759845734,0.1113539040088654,0.003747425973415375,0.002438455820083618,0.03753364086151123,XArbitraryZVertical,0.1974220012706848,-0.09771985206858087,-0.3092925443590995,0.9251018075662198,-0.05867931619286537,-0.4257189333438873,-0.9029507637023926,67309.31350925,walking,2,2020-03-11 15:30:35.938 +0100,605629905.091099,0,44253.69,100.145
2020-03-11 15:31:47.040 +0100,67380.41535104167,-0.072906494140625,-0.4214630126953125,-0.849151611328125,67380.41032604167,-0.6293310397767204,-0.06403977867541666,0.4414518287608437,0.1819890439510345,0.1668799519538879,0.13009013235569,-0.008957631886005402,0.001240730285644531,0.04897737503051758,XArbitraryZVertical,0.1984133956222162,-0.09743018777601033,-0.3084998725357643,0.9251849100719063,-0.05786086618900299,-0.4272525608539581,-0.9022789597511292,67309.31350925,walking,2,2020-03-11 15:30:35.938 +0100,605629905.091099,0,44253.69,100.145
2020-03-11 15:31:47.050 +0100,67380.42540004167,-0.0577850341796875,-0.4356231689453125,-0.85394287109375,67380.42037604167,-0.6276857350099947,-0.06279784881967691,0.4432251915276936,0.1888900846242905,0.2036267817020416,0.1446991711854935,-0.01621411740779877,0.007390528917312622,0.0524412989616394,XArbitraryZVertical,0.1995088445186561,-0.09695337269064554,-0.3075811597639618,0.9253052950784251,-0.05669261515140533,-0.4288552403450012,-0.9015925526618958,67309.31350925,walking,2,2020-03-11 15:30:35.938 +0100,605629905.091099,0,44253.69,100.145
2020-03-11 15:31:47.061 +0100,67380.43545004167,-0.0383148193359375,-0.4525146484375,-0.8580169677734375,67380.43042504168,-0.6260551843964561,-0.06142937353538525,0.445165880488644,0.2170778214931488,0.1882630735635757,0.1227528527379036,-0.002377718687057495,-0.005017280578613281,0.046894371509552,XArbitraryZVertical,0.2006998283508672,-0.09644244765158806,-0.3066519047541554,0.9254095591046669,-0.0554075576364994,-0.4306075870990753,-0.9008368849754333,67309.31350925,walking,2,2020-03-11 15:30:35.938 +0100,605629905.091099,0,44253.69,100.145
2020-03-11 15:31:47.071 +0100,67380.44549904167,-0.0435028076171875,-0.4532928466796875,-0.84393310546875,67380.44047504167,-0.6246693864603377,-0.06026183655698201,0.4472282221393233,0.1969541758298874,0.1640096604824066,0.1101033762097359,0.0159870907664299,-0.02004837989807129,0.04199600219726562,XArbitraryZVertical,0.2019038447330296,-0.0960653124284242,-0.3058521087921657,0.9254515950821663,-0.0543021596968174,-0.4324680268764496,-0.9000126123428345,67309.31350925,walking,2,2020-03-11 15:30:35.938 +0100,605629905.091099,0,44253.69,100.145
2020-03-11 15:31:47.081 +0100,67380.45554904167,-0.0457763671875,-0.4494476318359375,-0.85174560546875,67380.45052404168,-0.6233269027814614,-0.05922155756984983,0.4490737767590556,0.1834283173084259,0.1518378555774689,0.1135286018252373,0.009815484285354614,-0.0191633403301239,0.05533760786056519,XArbitraryZVertical,0.2029848675867212,-0.09571826969144126,-0.3050882500849273,0.9255032118532486,-0.05331853777170181,-0.4341313242912292,-0.8992702960968018,67309.31350925,walking,2,2020-03-11 15:30:35.938 +0100,605629905.091099,0,44253.69,100.145
2020-03-11 15:31:47.091 +0100,67380.46559904166,-0.0515899658203125,-0.4422149658203125,-0.8644866943359375,67380.46057404167,-0.621835583890715,-0.05834983350125009,0.4509533525622791,0.2157638818025589,0.1501142680644989,0.1300404667854309,0.006710320711135864,-0.01362568140029907,0.04675507545471191,XArbitraryZVertical,0.2040625229396028,-0.09543771885056068,-0.3042708571507823,0.9255642373413818,-0.05248692259192467,-0.4358237683773041,-0.8985002636909485,67309.31350925,walking,2,2020-03-11 15:30:35.938 +0100,605629905.091099,0,44253.69,100.145
2020-03-11 15:31:47.101 +0100,67380.47564804167,-0.0469818115234375,-0.4414825439453125,-0.86944580078125,67380.47062304168,-0.6201543515630703,-0.05760601210384352,0.4534582431385578,0.2977743446826935,0.1404477804899216,0.140681654214859,0.0001653507351875305,-0.004139959812164307,0.03296011686325073,XArbitraryZVertical,0.2054198724982012,-0.09528638789312853,-0.3033645868186114,0.9255771020036592,-0.05175556987524033,-0.4380768835544586,-0.89744633436203,67309.31350925,walking,2,2020-03-11 15:30:35.938 +0100,605629905.091099,0,44253.69,100.145
2020-03-11 15:31:47.111 +0100,67380.48569804167,-0.0525665283203125,-0.4451446533203125,-0.862701416015625,67380.48067304167,-0.6182947990764243,-0.05712593174443784,0.4565599016081316,0.3364421129226685,0.1218754351139069,0.1518781185150146,0.004264846444129944,-0.0006214380264282227,0.0266648530960083,XArbitraryZVertical,0.2070226799591423,-0.09532307798503384,-0.3023892618023674,0.9255353739410961,-0.05124688893556595,-0.4408629834651947,-0.8961102366447449,67309.31350925,walking,2,2020-03-11 15:30:35.938 +0100,605629905.091099,0,44253.69,100.145
2020-03-11 15:31:47.121 +0100,67380.49574704167,-0.0600738525390625,-0.454620361328125,-0.85272216796875,67380.49072204166,-0.6162911223392535,-0.05681550697441469,0.4599460348651982,0.3525026440620422,0.126814678311348,0.166966587305069,-0.001683101058006287,-0.001246720552444458,0.03192955255508423,XArbitraryZVertical,0.2087387021296827,-0.09546139595195716,-0.3013577775072919,0.9254720819371525,-0.05088365077972412,-0.4438997507095337,-0.8946305513381958,67309.31350925,walking,2,2020-03-11 15:30:35.938 +0100,605629905.091099,0,44253.69,100.145
2020-03-11 15:31:47.131 +0100,67380.50579704167,-0.05645751953125,-0.4625701904296875,-0.8387603759765625,67380.50077204168,-0.6140416000385854,-0.05652840129988274,0.4633995360763404,0.3559258580207825,0.141269251704216,0.1915547549724579,-0.009534202516078949,-0.007630437612533569,0.04038745164871216,XArbitraryZVertical,0.2104941276691663,-0.09559081907349282,-0.3002125987646484,0.9254333279087458,-0.05053988099098206,-0.4469917118549347,-0.8931092619895935,67309.31350925,walking,2,2020-03-11 15:30:35.938 +0100,605629905.091099,0,44253.69,100.145
2020-03-11 15:31:47.147 +0100,67380.51584604167,-0.0474700927734375,-0.4867095947265625,-0.839508056640625,67380.51082204167,-0.6115448879002603,-0.05620979559505041,0.4669409340096695,0.3706628978252411,0.1470906883478165,0.2100942134857178,-0.006291650235652924,-0.01241517066955566,0.05277925729751587,XArbitraryZVertical,0.2123068337662264,-0.09568802585229592,-0.2989468990218634,0.9254189330657311,-0.05016608163714409,-0.4501568078994751,-0.8915392160415649,67309.31350925,walking,2,2020-03-11 15:30:35.938 +0100,605629905.091099,0,44253.69,100.145
2020-03-11 15:31:47.158 +0100,67380.52589604167,-0.046417236328125,-0.51043701171875,-0.8351898193359375,67380.52087104168,-0.6089216965078459,-0.05597632596983113,0.4704196675648838,0.3317937850952148,0.129040315747261,0.2164911329746246,0.002399720251560211,-0.03345099091529846,0.05047434568405151,XArbitraryZVertical,0.2140836825675691,-0.09579760074828518,-0.2976322060448853,0.9254220138077546,-0.04987001791596413,-0.4532604217529297,-0.8899819850921631,67309.31350925,walking,2,2020-03-11 15:30:35.938 +0100,605629905.091099,0,44253.69,100.145
2020-03-11 15:31:47.161 +0100,67380.53594504167,-0.054718017578125,-0.515899658203125,-0.833404541015625,67380.53092104167,-0.6063447882251203,-0.05588558514739841,0.4734072858334721,0.2775386273860931,0.1217892467975616,0.205337256193161,0.003295950591564178,-0.05451726913452148,0.05344104766845703,XArbitraryZVertical,0.2156089449029292,-0.09590383033443889,-0.2963644035641542,0.9254637274313751,-0.04971339926123619,-0.455921471118927,-0.8886304497718811,67309.31350925,walking,2,2020-03-11 15:30:35.938 +0100,605629905.091099,0,44253.69,100.145
2020-03-11 15:31:47.171 +0100,67380.54599504167,-0.05706787109375,-0.505279541015625,-0.83795166015625,67380.54097004166,-0.603875525166553,-0.0557541871893807,0.4759077772731102,0.2420288622379303,0.1277749687433243,0.206087201833725,-0.00518527626991272,-0.05775588750839233,0.05409187078475952,XArbitraryZVertical,0.2169087867242126,-0.09593012478736911,-0.2951523482616628,0.9255446522397374,-0.04953295364975929,-0.4581455290317535,-0.8874959945678711,67309.31350925,walking,2,2020-03-11 15:30:35.938 +0100,605629905.091099,0,44253.69,100.145
2020-03-11 15:31:47.181 +0100,67380.55604504167,-0.0517120361328125,-0.518463134765625,-0.859466552734375,67380.55102004168,-0.6015244672354825,-0.05560244118735058,0.4781066885000452,0.2230464518070221,0.1139427348971367,0.1806050539016724,-0.007725924253463745,-0.04518228769302368,0.04854422807693481,XArbitraryZVertical,0.2180658356252221,-0.09591429635092996,-0.2939991146775227,0.9256414550732256,-0.04934217408299446,-0.4600989818572998,-0.8864954710006714,67309.31350925,walking,2,2020-03-11 15:30:35.938 +0100,605629905.091099,0,44253.69,100.145
2020-03-11 15:31:47.191 +0100,67380.566095125,-0.0550079345703125,-0.5125274658203125,-0.869873046875,67380.561070125,-0.5996046208759446,-0.05555769204204954,0.4801660403185879,0.2039393335580826,0.07042428851127625,0.1379971355199814,-0.002462461590766907,-0.05653852224349976,0.02608364820480347,XArbitraryZVertical,0.2191216465981878,-0.09597301605139366,-0.2930599610769396,0.9256838739941384,-0.04924978315830231,-0.4619264602661133,-0.885549783706665,67309.31350925,walking,2,2020-03-11 15:30:35.938 +0100,605629905.091099,0,44253.69,100.145
2020-03-11 15:31:47.201 +0100,67380.576145125,-0.0620574951171875,-0.502471923828125,-0.8800811767578125,67380.57112012501,-0.598000441776662,-0.05573195278130529,0.4818591441711272,0.1546824723482132,0.04776667430996895,0.1285374462604523,-0.005647659301757812,-0.04910182952880859,0.01488637924194336,XArbitraryZVertical,0.2199601515596349,-0.09611464309499589,-0.2922990164279893,0.925710847651292,-0.04936046525835991,-0.4634274244308472,-0.8847590088844299,67309.31350925,walking,2,2020-03-11 15:30:35.938 +0100,605629905.091099,0,44253.69,100.145
2020-03-11 15:31:47.212 +0100,67380.586194125,-0.061004638671875,-0.4932098388671875,-0.883941650390625,67380.581169125,-0.596452890422431,-0.05603015620868978,0.4832906260158753,0.1451563388109207,0.04067946970462799,0.128217875957489,-0.01247061789035797,-0.0377783477306366,0.004000306129455566,XArbitraryZVertical,0.2206564479414838,-0.09628201482603946,-0.2915838066102162,0.9257533368073401,-0.04958710074424744,-0.4646954238414764,-0.8840810060501099,67309.31350925,walking,2,2020-03-11 15:30:35.938 +0100,605629905.091099,0,44253.69,100.145
2020-03-11 15:31:47.221 +0100,67380.596244125,-0.05853271484375,-0.4957733154296875,-0.885406494140625,67380.59121912501,-0.5948328710145969,-0.0564624070546534,0.4846874376992988,0.1404934376478195,0.02617058344185352,0.1388112157583237,-0.01107229292392731,-0.02727994322776794,-0.0005306005477905273,XArbitraryZVertical,0.2213209113360867,-0.09649747947235512,-0.2908508062817939,0.9258028957843503,-0.049932561814785,-0.4659318327903748,-0.8834105730056763,67309.31350925,walking,2,2020-03-11 15:30:35.938 +0100,605629905.091099,0,44253.69,100.145
2020-03-11 15:31:47.231 +0100,67380.60629312501,-0.0626678466796875,-0.489959716796875,-0.8817291259765625,67380.60126912501,-0.5931642672866334,-0.05699655446367891,0.4860546877290264,0.1206773743033409,0.0184351671487093,0.1406567841768265,-0.008164837956428528,-0.02863401174545288,-0.002659082412719727,XArbitraryZVertical,0.2219596031241627,-0.09674951134372417,-0.2901075322321193,0.9258568362108826,-0.05036808922886848,-0.4671411514282227,-0.8827469348907471,67309.31350925,walking,2,2020-03-11 15:30:35.938 +0100,605629905.091099,0,44253.69,100.145
2020-03-11 15:31:47.241 +0100,67380.616343125,-0.0605010986328125,-0.4892730712890625,-0.880462646484375,67380.61131812501,-0.5914977270880609,-0.05761430345899463,0.48723509305087,0.09307488054037094,0.01215722225606441,0.1422365456819534,-0.01178646087646484,-0.02177709341049194,0.0004358887672424316,XArbitraryZVertical,0.222499674892299,-0.09701352695375964,-0.2893788601510227,0.9259276370410267,-0.05088160559535027,-0.4681845307350159,-0.8821645379066467,67309.31350925,walking,2,2020-03-11 15:30:35.938 +0100,605629905.091099,0,44253.69,100.145
2020-03-11 15:31:47.252 +0100,67380.62639212501,-0.0614013671875,-0.5061798095703125,-0.886688232421875,67380.62136812501,-0.5898116049059516,-0.05835906817391376,0.4881719994483796,0.06534072011709213,-0.001521837897598743,0.1451718807220459,-0.008988320827484131,-0.02026280760765076,0.001225948333740234,XArbitraryZVertical,0.2229096397779152,-0.09729970479334064,-0.2886608350884215,0.9260231413304157,-0.05151299014687538,-0.4690122008323669,-0.881688117980957,67309.31350925,walking,2,2020-03-11 15:30:35.938 +0100,605629905.091099,0,44253.69,100.145
2020-03-11 15:31:47.261 +0100,67380.636442125,-0.053802490234375,-0.507110595703125,-0.892608642578125,67380.631417125,-0.5880321882600584,-0.05934844766376539,0.4887334312853714,0.02412194758653641,-0.02556157112121582,0.1599793881177902,-0.009031936526298523,-0.03667369484901428,-0.005314052104949951,XArbitraryZVertical,0.2231148743758661,-0.09763653327642852,-0.2879351902688415,0.9261641326492969,-0.05236966162919998,-0.4695079624652863,-0.8813737034797668,67309.31350925,walking,2,2020-03-11 15:30:35.938 +0100,605629905.091099,0,44253.69,100.145
2020-03-11 15:31:47.271 +0100,67380.646492125,-0.0469970703125,-0.522705078125,-0.898468017578125,67380.64146712501,-0.5862872553223474,-0.06060300740702233,0.4887893965888679,-0.02229348942637444,-0.06418353319168091,0.1417343318462372,-0.0003289729356765747,-0.03755506873130798,-0.01132708787918091,XArbitraryZVertical,0.2230458642851322,-0.09803058775562898,-0.2872658221524973,0.9263469532316615,-0.05347376689314842,-0.4695573747158051,-0.8812810778617859,67309.31350925,walking,2,2020-03-11 15:30:35.938 +0100,605629905.091099,0,44253.69,100.145
2020-03-11 15:31:47.282 +0100,67380.656541125,-0.045379638671875,-0.52801513671875,-0.8903350830078125,67380.651516125,-0.5849417557244777,-0.06215935462597145,0.4885615616118039,-0.04147440940141678,-0.1197400316596031,0.1012442409992218,0.007854610681533813,-0.05335071682929993,-0.01716399192810059,XArbitraryZVertical,0.2227826029533249,-0.0985704574623769,-0.2868207432365564,0.9264909177225471,-0.05485192313790321,-0.4693562090396881,-0.8813035488128662,67309.31350925,walking,2,2020-03-11 15:30:35.938 +0100,605629905.091099,0,44253.69,100.145
2020-03-11 15:31:47.292 +0100,67380.666591125,-0.0552520751953125,-0.519134521484375,-0.8740081787109375,67380.66156612501,-0.5838956639118207,-0.06411971407682222,0.4879094566986337,-0.09574830532073975,-0.1676625460386276,0.0965016782283783,0.01121920347213745,-0.05923676490783691,-0.008835017681121826,XArbitraryZVertical,0.2222497889279533,-0.09927354545130704,-0.2865673391160077,0.9266222400493536,-0.05659908801317215,-0.4687803089618683,-0.8814995884895325,67309.31350925,walking,2,2020-03-11 15:30:35.938 +0100,605629905.091099,0,44253.69,100.145
2020-03-11 15:31:47.302 +0100,67380.67664012501,-0.0596160888671875,-0.5159759521484375,-0.85467529296875,67380.671615125,-0.5828302975084626,-0.06650064793863379,0.4866637755705548,-0.1463012248277664,-0.2095807641744614,0.1009263917803764,0.003484129905700684,-0.05145686864852905,0.007936596870422363,XArbitraryZVertical,0.2213818466495309,-0.1000895890292776,-0.2863620458062182,0.9268056557586639,-0.05873647704720497,-0.4676796197891235,-0.8819442987442017,67309.31350925,walking,2,2020-03-11 15:30:35.938 +0100,605629905.091099,0,44253.69,100.145
2020-03-11 15:31:47.312 +0100,67380.686690125,-0.0634613037109375,-0.516571044921875,-0.833770751953125,67380.681665125,-0.5818128006866481,-0.06923695403797661,0.4850233454884463,-0.1803249716758728,-0.2416651993989944,0.1024907305836678,0.001586146652698517,-0.04974889755249023,0.02786964178085327,XArbitraryZVertical,0.2202772047315917,-0.1010233970350676,-0.2862233406177013,0.9270103654806525,-0.0612025186419487,-0.4662290215492249,-0.8825444579124451,67309.31350925,walking,2,2020-03-11 15:30:35.938 +0100,605629905.091099,0,44253.69,100.145
2020-03-11 15:31:47.322 +0100,67380.69673912501,-0.0635528564453125,-0.5113067626953125,-0.8196868896484375,67380.69171512501,-0.5807284621681932,-0.07224038822233123,0.4831552709216255,-0.1898253262042999,-0.256225049495697,0.1144265905022621,0.0004540607333183289,-0.05199745297431946,0.0494534969329834,XArbitraryZVertical,0.2190320222344934,-0.1020444711835051,-0.2860839293577604,0.9272365994636591,-0.06391565501689911,-0.4645755887031555,-0.8832237720489502,67309.31350925,walking,2,2020-03-11 15:30:35.938 +0100,605629905.091099,0,44253.69,100.145
2020-03-11 15:31:47.332 +0100,67380.706789125,-0.0739898681640625,-0.4976654052734375,-0.8110198974609375,67380.701764125,-0.5794765407867533,-0.07545059972945098,0.481349843799226,-0.169814333319664,-0.2694178223609924,0.1311139613389969,0.003260605037212372,-0.04833275079727173,0.06416261196136475,XArbitraryZVertical,0.2177955205169715,-0.103153332740755,-0.2858846165539742,0.9274666351329141,-0.06681377440690994,-0.4629760682582855,-0.883849024772644,67309.31350925,walking,2,2020-03-11 15:30:35.938 +0100,605629905.091099,0,44253.69,100.145
2020-03-11 15:31:47.342 +0100,67380.71683812501,-0.090179443359375,-0.4754486083984375,-0.8234710693359375,67380.71181412501,-0.5780555120502597,-0.07879648910788423,0.4798209788952251,-0.135186493396759,-0.2703694403171539,0.1455160230398178,-0.004163898527622223,-0.03604704141616821,0.07330566644668579,XArbitraryZVertical,0.2166781283315957,-0.1043457755205444,-0.285613437564759,0.9276784628507877,-0.06982629001140594,-0.4616203904151917,-0.8843250870704651,67309.31350925,walking,2,2020-03-11 15:30:35.938 +0100,605629905.091099,0,44253.69,100.145
2020-03-11 15:31:47.352 +0100,67380.72688812501,-0.1066741943359375,-0.4322052001953125,-0.835784912109375,67380.721863125,-0.5764661521238975,-0.08230359591364292,0.4786282109146926,-0.1039337515830994,-0.2892800271511078,0.1599913686513901,-0.0172073096036911,-0.0148887038230896,0.06115233898162842,XArbitraryZVertical,0.215704469541411,-0.1056415582561358,-0.2852731480020698,0.9278634155425786,-0.07297249138355255,-0.4605619609355927,-0.8846228718757629,67309.31350925,walking,2,2020-03-11 15:30:35.938 +0100,605629905.091099,0,44253.69,100.145
2020-03-11 15:31:47.362 +0100,67380.73693712501,-0.131134033203125,-0.403472900390625,-0.8454132080078125,67380.731913125,-0.5746284623067683,-0.08600446321094689,0.477643849885642,-0.09546912461519241,-0.289288729429245,0.1876544952392578,-0.03038982301950455,0.02748066186904907,0.04901361465454102,XArbitraryZVertical,0.2148151945945694,-0.1070299845833593,-0.284832578620055,0.9280459659102542,-0.07628475874662399,-0.4596880078315735,-0.8847980499267578,67309.31350925,walking,2,2020-03-11 15:30:35.938 +0100,605629905.091099,0,44253.69,100.145
2020-03-11 15:31:47.372 +0100,67380.74698712501,-0.1329193115234375,-0.402069091796875,-0.854248046875,67380.741962125,-0.5725317218322054,-0.08974695157616855,0.4767783684039426,-0.079668328166008,-0.2843267321586609,0.2079275399446487,-0.0515032485127449,0.0554441511631012,0.03948956727981567,XArbitraryZVertical,0.2139914824910326,-0.1084274851041604,-0.2842719339359173,0.9282458975615823,-0.07963119447231293,-0.4589192271232605,-0.8849022388458252,67309.31350925,walking,2,2020-03-11 15:30:35.938 +0100,605629905.091099,0,44253.69,100.145
2020-03-11 15:31:47.382 +0100,67380.757037125,-0.12939453125,-0.411468505859375,-0.8651123046875,67380.752012125,-0.5700708534732083,-0.09360084107294181,0.4760628600929292,-0.0521983727812767,-0.2705824673175812,0.2586640417575836,-0.04984815418720245,0.05621206760406494,0.03066796064376831,XArbitraryZVertical,0.2132443925315795,-0.1098593925093763,-0.2835497597391288,0.9284703082257169,-0.08307157456874847,-0.458283394575119,-0.8849154710769653,67309.31350925,walking,2,2020-03-11 15:30:35.938 +0100,605629905.091099,0,44253.69,100.145
2020-03-11 15:31:47.392 +0100,67380.76708612501,-0.121368408203125,-0.422210693359375,-0.8802337646484375,67380.762061125,-0.5668979723880798,-0.09770242399712799,0.4757334330874276,-0.002390601672232151,-0.2775370478630066,0.3086081743240356,-0.04267982393503189,0.04651981592178345,0.01960575580596924,XArbitraryZVertical,0.2126854419086861,-0.1113828381805249,-0.2825168515547494,0.928731886289311,-0.08671514689922333,-0.4579905569553375,-0.8847175240516663,67309.31350925,walking,2,2020-03-11 15:30:35.938 +0100,605629905.091099,0,44253.69,100.145
2020-03-11 15:31:47.402 +0100,67380.77713612501,-0.117950439453125,-0.42950439453125,-0.8793487548828125,67380.772111125,-0.5634451803829739,-0.1022543296532505,0.475709275933361,0.00268819835036993,-0.3266922235488892,0.306932806968689,-0.0306263342499733,0.03575628995895386,0.004091382026672363,XArbitraryZVertical,0.2122262231416429,-0.1131269481610621,-0.2813970650388185,0.9289660292645964,-0.09074251353740692,-0.4579690992832184,-0.8843246698379517,67309.31350925,walking,2,2020-03-11 15:30:35.938 +0100,605629905.091099,0,44253.69,100.145
2020-03-11 15:31:47.412 +0100,67380.78718512501,-0.1238555908203125,-0.4183349609375,-0.866119384765625,67380.782160125,-0.5601027714180613,-0.1072690035802676,0.475336848972968,-0.06714174896478653,-0.3781391680240631,0.2975824475288391,-0.02275668084621429,0.02813154458999634,0.004679739475250244,XArbitraryZVertical,0.2115383294868979,-0.115054475183795,-0.2803786764396553,0.9291941006136657,-0.09519420564174652,-0.4576379656791687,-0.8840280175209045,67309.31350925,walking,2,2020-03-11 15:30:35.938 +0100,605629905.091099,0,44253.69,100.145
2020-03-11 15:31:47.422 +0100,67380.79723512501,-0.127685546875,-0.4089202880859375,-0.852783203125,67380.792210125,-0.5571158128410806,-0.1126595512078774,0.4739813777013782,-0.1774932295084,-0.4301935732364655,0.2608340084552765,-0.02382820844650269,0.03809541463851929,0.01799869537353516,XArbitraryZVertical,0.2103224022959021,-0.1170713521237511,-0.2795683383185831,0.9294622580627652,-0.1000278368592262,-0.4564323425292969,-0.8841175436973572,67309.31350925,walking,2,2020-03-11 15:30:35.938 +0100,605629905.091099,0,44253.69,100.145
2020-03-11 15:31:47.432 +0100,67380.80728412501,-0.1444091796875,-0.403533935546875,-0.847442626953125,67380.802260125,-0.5547575549920482,-0.1182145208917037,0.4717158494976506,-0.2328121513128281,-0.4625405967235565,0.2113319933414459,-0.0226268395781517,0.04549309611320496,0.03179013729095459,XArbitraryZVertical,0.2086244304679535,-0.1191193349940741,-0.2790656186901905,0.9297357750515595,-0.1050592064857483,-0.4544154107570648,-0.8845728635787964,67309.31350925,walking,2,2020-03-11 15:30:35.938 +0100,605629905.091099,0,44253.69,100.145
2020-03-11 15:31:47.443 +0100,67380.81733412501,-0.1536865234375,-0.4051361083984375,-0.854156494140625,67380.812309125,-0.5527753220049118,-0.123871678497134,0.469146866173647,-0.2252624183893204,-0.4808424413204193,0.2076229006052017,-0.03420416265726089,0.04858952760696411,0.03767776489257812,XArbitraryZVertical,0.2067503346196136,-0.1212202525078768,-0.2787404837189296,0.9299803810687023,-0.1102055385708809,-0.4521254897117615,-0.8851199150085449,67309.31350925,walking,2,2020-03-11 15:30:35.938 +0100,605629905.091099,0,44253.69,100.145
2020-03-11 15:31:47.453 +0100,67380.827383125,-0.177398681640625,-0.40167236328125,-0.8574066162109375,67380.822359125,-0.5505497304944529,-0.1297944798785589,0.4666473982930368,-0.2103404551744461,-0.4851639568805695,0.2427811622619629,-0.03809519112110138,0.04475653171539307,0.0314134955406189,XArbitraryZVertical,0.2048892259591857,-0.1234328601688562,-0.2783195807592413,0.9302273138970548,-0.1155918687582016,-0.4498946666717529,-0.8855694532394409,67309.31350925,walking,2,2020-03-11 15:30:35.938 +0100,605629905.091099,0,44253.69,100.145
2020-03-11 15:31:47.463 +0100,67380.83743312501,-0.2090301513671875,-0.40045166015625,-0.860443115234375,67380.832408125,-0.5479290149496755,-0.1357714200248363,0.4640958446757895,-0.2248756438493729,-0.4588214159011841,0.2800303101539612,-0.05636148899793625,0.045940101146698,0.02859115600585938,XArbitraryZVertical,0.2030240299586247,-0.1256288986472667,-0.277710310106748,0.9305242931336852,-0.1210377514362335,-0.447614461183548,-0.8859972357749939,67309.31350925,walking,2,2020-03-11 15:30:35.938 +0100,605629905.091099,0,44253.69,100.145
2020-03-11 15:31:47.473 +0100,67380.847482125,-0.2183685302734375,-0.3812255859375,-0.864593505859375,67380.842458125,-0.5449897882079013,-0.1414393730592347,0.4611824352102539,-0.2748932838439941,-0.4039184749126434,0.3174147009849548,-0.08278986811637878,0.04455369710922241,0.02614164352416992,XArbitraryZVertical,0.2010559507120924,-0.1276102059662746,-0.276910446948409,0.930920275485191,-0.1262408643960953,-0.44500732421875,-0.8865842819213867,67309.31350925,walking,2,2020-03-11 15:30:35.938 +0100,605629905.091099,0,44253.69,100.145
2020-03-11 15:31:47.483 +0100,67380.85753212501,-0.22308349609375,-0.3737030029296875,-0.8822021484375,67380.852507125,-0.5416825235611025,-0.1467028076813285,0.4577238448123162,-0.3131087422370911,-0.3529667258262634,0.3659370541572571,-0.08723938465118408,0.06067979335784912,0.02283179759979248,XArbitraryZVertical,0.1989154576743125,-0.1293067400954295,-0.2758855456274365,0.9314501934852996,-0.1311297714710236,-0.4419074058532715,-0.8874248266220093,67309.31350925,walking,2,2020-03-11 15:30:35.938 +0100,605629905.091099,0,44253.69,100.145
2020-03-11 15:31:47.493 +0100,67380.86758212501,-0.2177886962890625,-0.390655517578125,-0.89617919921875,67380.862557125,-0.5378550296424398,-0.1516834314623625,0.4540251462846669,-0.3062732219696045,-0.3132624626159668,0.4184098541736603,-0.08729004859924316,0.06488144397735596,0.006168663501739502,XArbitraryZVertical,0.1967391618117798,-0.1307995975456375,-0.2745767465354408,0.9320904205413783,-0.1357941031455994,-0.4385864436626434,-0.8883703351020813,67309.31350925,walking,2,2020-03-11 15:30:35.938 +0100,605629905.091099,0,44253.69,100.145
2020-03-11 15:31:47.503 +0100,67380.87763112501,-0.2063751220703125,-0.388824462890625,-0.901092529296875,67380.87260612501,-0.5336655216174986,-0.1565818724471942,0.4503656946998315,-0.295717179775238,-0.304999053478241,0.4387836158275604,-0.07739594578742981,0.04463723301887512,-0.006904780864715576,XArbitraryZVertical,0.1946211716559111,-0.1322332978299161,-0.2730786452255629,0.9327726552378152,-0.1403934359550476,-0.4352948069572449,-0.8892738819122314,67309.31350925,walking,2,2020-03-11 15:30:35.938 +0100,605629905.091099,0,44253.69,100.145
2020-03-11 15:31:47.513 +0100,67380.88768112501,-0.208587646484375,-0.3729400634765625,-0.8996734619140625,67380.882656125,-0.5290482692064437,-0.1614620845508391,0.4468343057023124,-0.2583847343921661,-0.2616057693958282,0.5019481778144836,-0.06139804422855377,0.04328629374504089,-0.01100218296051025,XArbitraryZVertical,0.1925998071493521,-0.1336427924290966,-0.2713676702465013,0.9334904275239537,-0.1449778079986572,-0.4321128129959106,-0.8900898098945618,67309.31350925,walking,2,2020-03-11 15:30:35.938 +0100,605629905.091099,0,44253.69,100.145
2020-03-11 15:31:47.523 +0100,67380.897730125,-0.2206268310546875,-0.3797454833984375,-0.905303955078125,67380.89270512501,-0.5232778573343321,-0.1662705231745358,0.4437453876892125,-0.1674443036317825,-0.1970004737377167,0.6237953305244446,-0.05911213159561157,0.05638295412063599,-0.008978366851806641,XArbitraryZVertical,0.1908807154056271,-0.1349714183970052,-0.2691035160576438,0.9343074497861761,-0.1494762599468231,-0.4293251037597656,-0.8906945586204529,67309.31350925,walking,2,2020-03-11 15:30:35.938 +0100,605629905.091099,0,44253.69,100.145
2020-03-11 15:31:47.533 +0100,67380.90778012501,-0.2305145263671875,-0.4159393310546875,-0.904266357421875,67380.902755125,-0.5158354786629353,-0.1712612775530216,0.4415391780619127,-0.03949939459562302,-0.163282722234726,0.7635652422904968,-0.06654694676399231,0.0475839376449585,-0.014434814453125,XArbitraryZVertical,0.1896761423738045,-0.1363402139484601,-0.2660741986345392,0.9352212226368611,-0.1540806740522385,-0.4273315370082855,-0.890868604183197,67309.31350925,walking,2,2020-03-11 15:30:35.938 +0100,605629905.091099,0,44253.69,100.145
2020-03-11 15:31:47.543 +0100,67380.917829125,-0.2238006591796875,-0.4502105712890625,-0.901824951171875,67380.912805125,-0.5072275144111762,-0.1764928150913606,0.4400121222499228,0.00127986166626215,-0.1363429129123688,0.7856219410896301,-0.07166182994842529,0.01000902056694031,-0.01357412338256836,XArbitraryZVertical,0.1888529787299072,-0.1377994570073018,-0.262521515664683,0.936177418052639,-0.1588535457849503,-0.4259504377841949,-0.8906916975975037,67309.31350925,walking,2,2020-03-11 15:30:35.938 +0100,605629905.091099,0,44253.69,100.145
2020-03-11 15:31:47.553 +0100,67380.92787912501,-0.1937713623046875,-0.4098663330078125,-0.908233642578125,67380.922854125,-0.4990722956358112,-0.1813961120695228,0.4385019009940294,-0.04109795391559601,-0.1334579139947891,0.7009989619255066,-0.06046672165393829,-0.02562910318374634,-0.01129055023193359,XArbitraryZVertical,0.1880635908721467,-0.1391587959170812,-0.2591413438029592,0.9370766123607684,-0.1633348017930984,-0.4245835840702057,-0.8905338048934937,67309.31350925,walking,2,2020-03-11 15:30:35.938 +0100,605629905.091099,0,44253.69,100.145
2020-03-11 15:31:47.563 +0100,67380.937928125,-0.23065185546875,-0.368133544921875,-0.9034576416015625,67380.932904125,-0.4917402145041341,-0.1858869610724734,0.4363740869375277,-0.1133201792836189,-0.1031239479780197,0.6607116460800171,-0.0262732058763504,0.01278775930404663,-0.01755595207214355,XArbitraryZVertical,0.1869896608907566,-0.1403434148776878,-0.2560894995960235,0.937953387293922,-0.167498990893364,-0.4226561188697815,-0.8906772136688232,67309.31350925,walking,2,2020-03-11 15:30:35.938 +0100,605629905.091099,0,44253.69,100.145
2020-03-11 15:31:47.573 +0100,67380.947978125,-0.2437744140625,-0.3747406005859375,-0.90887451171875,67380.94295312501,-0.4857395104773095,-0.1893124551293092,0.4340552904392154,-0.1059594750404358,-0.05242295190691948,0.454229861497879,-0.05991974472999573,0.05241787433624268,-0.01239877939224243,XArbitraryZVertical,0.1858762226391333,-0.141141257082079,-0.2535508367788433,0.938744375197859,-0.1707329750061035,-0.4205534756183624,-0.8910583257675171,67309.31350925,walking,2,2020-03-11 15:30:35.938 +0100,605629905.091099,0,44253.69,100.145
2020-03-11 15:31:47.583 +0100,67380.958027125,-0.232818603515625,-0.3714141845703125,-0.8987884521484375,67380.953003125,-0.4820119244487658,-0.1911240809079144,0.431863787371478,-0.1994801014661789,0.0178001057356596,0.2932623624801636,-0.07125365734100342,0.04382151365280151,-0.01722365617752075,XArbitraryZVertical,0.1848709340984291,-0.1414128209641606,-0.2519260379232388,0.9393392600920965,-0.1725216209888458,-0.4185642004013062,-0.8916503190994263,67309.31350925,walking,2,2020-03-11 15:30:35.938 +0100,605629905.091099,0,44253.69,100.145
2020-03-11 15:31:47.593 +0100,67380.968077125,-0.2310791015625,-0.3942108154296875,-0.8886566162109375,67380.96305212501,-0.4798928067090736,-0.1918171071516116,0.4283565831054695,-0.3947276175022125,0.04644080623984337,0.2024389654397964,-0.05940115451812744,0.04396024346351624,-0.005821824073791504,XArbitraryZVertical,0.1832687032619659,-0.1411719597967752,-0.2509238589950774,0.9399575554512346,-0.1734183132648468,-0.4153764247894287,-0.892966091632843,67309.31350925,walking,2,2020-03-11 15:30:35.938 +0100,605629905.091099,0,44253.69,100.145
2020-03-11 15:31:47.603 +0100,67380.97812712501,-0.224517822265625,-0.4228668212890625,-0.874603271484375,67380.973102125,-0.4791230435001815,-0.1913642366505494,0.4230274383504853,-0.5967116355895996,0.1123206913471222,0.1265946626663208,-0.0576474666595459,0.01631015539169312,0.006548941135406494,XArbitraryZVertical,0.1808485008989616,-0.1403256334772694,-0.2504117761730276,0.9406893525207278,-0.173432469367981,-0.4105229079723358,-0.8952050805091858,67309.31350925,walking,2,2020-03-11 15:30:35.938 +0100,605629905.091099,0,44253.69,100.145
2020-03-11 15:31:47.613 +0100,67380.988176125,-0.2258148193359375,-0.4752960205078125,-0.86846923828125,67380.98315112501,-0.4797969335417636,-0.1899576711087283,0.4159081447713365,-0.7935594320297241,0.1358244270086288,-0.001732409931719303,-0.05179807543754578,-0.01884788274765015,0.02369266748428345,XArbitraryZVertical,0.1775941103760809,-0.1389697717836162,-0.2504560842451578,0.941498486817318,-0.1727206110954285,-0.4040208160877228,-0.8982954621315002,67309.31350925,walking,2,2020-03-11 15:30:35.938 +0100,605629905.091099,0,44253.69,100.145
2020-03-11 15:31:47.623 +0100,67380.998226125,-0.1886749267578125,-0.518798828125,-0.8907318115234375,67380.99320112501,-0.4824863610451756,-0.1874306446693455,0.4078387393320397,-0.8714265823364258,0.1796912252902985,-0.1869308054447174,-0.05476367473602295,-0.0786716639995575,0.03343409299850464,XArbitraryZVertical,0.1738882898399329,-0.137154718583369,-0.2513349006709526,0.942221947672315,-0.1710519790649414,-0.3966262638568878,-0.9019029140472412,67309.31350925,walking,2,2020-03-11 15:30:35.938 +0100,605629905.091099,0,44253.69,100.145
2020-03-11 15:31:47.633 +0100,67381.008275125,-0.151336669921875,-0.49737548828125,-0.9073333740234375,67381.00325012501,-0.4866461016902362,-0.1840561412772328,0.3995360123843815,-0.9202185869216919,0.1899643689393997,-0.2309752106666565,-0.02007126808166504,-0.1298096179962158,0.01494985818862915,XArbitraryZVertical,0.1700807823123342,-0.1350255278230288,-0.2528377228115328,0.942822114288961,-0.1686044335365295,-0.3889909386634827,-0.9056812524795532,67309.31350925,walking,2,2020-03-11 15:30:35.938 +0100,605629905.091099,0,44253.69,100.145
2020-03-11 15:31:47.668 +0100,67381.018325125,-0.128753662109375,-0.4562530517578125,-0.9388580322265625,67381.01330012501,-0.4904360600531824,-0.1807558795117318,0.3901823204519307,-1.040873527526855,0.1675203144550323,-0.09994875639677048,0.01492390036582947,-0.1170201599597931,0.002439320087432861,XArbitraryZVertical,0.1657937911109807,-0.1327639337765988,-0.2541635718443097,0.9435501935961715,-0.1662613898515701,-0.380357027053833,-0.9097723364830017,67309.31350925,walking,2,2020-03-11 15:30:35.938 +0100,605629905.091099,0,44253.69,100.145
2020-03-11 15:31:47.670 +0100,67381.028374125,-0.1336212158203125,-0.4308624267578125,-0.9855499267578125,67381.02334912501,-0.492715376678745,-0.1787058922281644,0.3799492379113912,-1.002100348472595,0.09907680749893188,0.02512500435113907,0.03632482886314392,-0.08538141846656799,-0.02496391534805298,XArbitraryZVertical,0.1610316691601615,-0.1308507787315257,-0.2548720279464424,0.9444506254503027,-0.165079265832901,-0.3708733320236206,-0.9138937592506409,67309.31350925,walking,2,2020-03-11 15:30:35.938 +0100,605629905.091099,0,44253.69,100.145
2020-03-11 15:31:47.671 +0100,67381.038424125,-0.14764404296875,-0.3945465087890625,-1.015274047851562,67381.03339912501,-0.4937601818400024,-0.1776124038242089,0.3709248182435317,-0.7908257246017456,0.07104118168354034,0.09027018398046494,0.03104247152805328,-0.06838655471801758,-0.06821882724761963,XArbitraryZVertical,0.1568030431375422,-0.1294119272112241,-0.2551010658289774,0.9452982017454988,-0.1646644771099091,-0.3624775111675262,-0.9173307418823242,67309.31350925,walking,2,2020-03-11 15:30:35.938 +0100,605629905.091099,0,44253.69,100.145
2020-03-11 15:31:47.674 +0100,67381.048473125,-0.1683197021484375,-0.3349609375,-1.025741577148438,67381.04344912501,-0.494171603632845,-0.1770739039812836,0.3641171633138455,-0.5652983784675598,0.02487989887595177,0.05932491645216942,0.01695647835731506,-0.03842365741729736,-0.09544670581817627,XArbitraryZVertical,0.1535995289678114,-0.1284277120400191,-0.2551179082083799,0.9459536113312365,-0.1646013408899307,-0.3561244904994965,-0.9198270440101624,67309.31350925,walking,2,2020-03-11 15:30:35.938 +0100,605629905.091099,0,44253.69,100.145
2020-03-11 15:31:47.684 +0100,67381.058523125,-0.2522125244140625,-0.3081817626953125,-1.001739501953125,67381.05349812501,-0.4946944436207619,-0.1768350120058084,0.3593134806165023,-0.416592001914978,0.02894154563546181,0.005593379959464073,-0.003639832139015198,0.01666915416717529,-0.1042015552520752,XArbitraryZVertical,0.1513053006450756,-0.1278156685165326,-0.2552499289124446,0.9463705407997148,-0.1646806299686432,-0.3516316413879395,-0.9215397238731384,67309.31350925,walking,2,2020-03-11 15:30:35.938 +0100,605629907.6625385,0,44253.77,100.1452
2020-03-11 15:31:47.694 +0100,67381.068572125,-0.278594970703125,-0.33489990234375,-0.982818603515625,67381.06354812501,-0.4958458882983992,-0.1757721605848909,0.3560561386936005,-0.2894242107868195,0.1283882260322571,-0.1160827279090881,-0.08831280469894409,0.04039710760116577,-0.07890206575393677,XArbitraryZVertical,0.1498136669627116,-0.1270327694969777,-0.2556487707688607,0.9466056032970279,-0.1639005094766617,-0.3485804498195648,-0.9228370785713196,67309.31350925,walking,2,2020-03-11 15:30:35.938 +0100,605629907.6625385,0,44253.77,100.1452
2020-03-11 15:31:47.704 +0100,67381.078622125,-0.2769775390625,-0.391387939453125,-0.9752044677734375,67381.07359712501,-0.4982475772903928,-0.1730089478693136,0.3542536851826644,-0.1967182159423828,0.274122565984726,-0.2556407749652863,-0.1171379685401917,0.01198899745941162,-0.0589144229888916,XArbitraryZVertical,0.1491558009474189,-0.1257004928270938,-0.256543132400785,0.9466453563628161,-0.1614577770233154,-0.3468904793262482,-0.9239038825035095,67309.31350925,walking,2,2020-03-11 15:30:35.938 +0100,605629907.6625385,0,44253.77,100.1452
2020-03-11 15:31:47.714 +0100,67381.088672125,-0.254425048828125,-0.437103271484375,-0.977569580078125,67381.08364712501,-0.5016657766486802,-0.1684632722161086,0.353256799804823,-0.1547673046588898,0.4049434065818787,-0.3200778067111969,-0.1196640282869339,-0.04543420672416687,-0.05023539066314697,XArbitraryZVertical,0.1490516612559063,-0.1236901222413032,-0.2578031808235615,0.9465842786442787,-0.157314270734787,-0.3459553420543671,-0.9249687194824219,67309.31350925,walking,2,2020-03-11 15:30:35.938 +0100,605629907.6625385,0,44253.77,100.1452
2020-03-11 15:31:47.724 +0100,67381.098721125,-0.204986572265625,-0.452911376953125,-0.9774169921875,67381.093696125,-0.5051407195689137,-0.1625868015364967,0.3523761813715193,-0.1806544959545135,0.5187364220619202,-0.2749559283256531,-0.1025005131959915,-0.09197592735290527,-0.05139178037643433,XArbitraryZVertical,0.1491782972493945,-0.1210665200534364,-0.2589941800638826,0.9465784040766935,-0.1519252806901932,-0.3451289534568787,-0.926177442073822,67309.31350925,walking,2,2020-03-11 15:30:35.938 +0100,605629907.6625385,0,44253.77,100.1452
2020-03-11 15:31:47.734 +0100,67381.108771125,-0.1704254150390625,-0.35595703125,-0.979034423828125,67381.10374612501,-0.5080699539414134,-0.1560461591488694,0.3508167618047189,-0.225354328751564,0.5707650184631348,-0.2058399766683578,-0.05903956294059753,-0.1092481017112732,-0.04973477125167847,XArbitraryZVertical,0.1491080826544171,-0.1180078037248142,-0.2598678471489842,0.9467363000090406,-0.1459477543830872,-0.3436649441719055,-0.9276818633079529,67309.31350925,walking,2,2020-03-11 15:30:35.938 +0100,605629907.6625385,0,44253.77,100.1452
2020-03-11 15:31:47.744 +0100,67381.118820125,-0.151275634765625,-0.32098388671875,-0.9693450927734375,67381.113795125,-0.5100369482616971,-0.1495545028325259,0.3489186985985613,-0.2136221677064896,0.572836697101593,-0.0985468327999115,-0.030406653881073,-0.014076828956604,-0.04978096485137939,XArbitraryZVertical,0.14893276757743,-0.1148585204130599,-0.2602878605338561,0.94703573184738,-0.1400194615125656,-0.3418818712234497,-0.929253101348877,67309.31350925,walking,2,2020-03-11 15:30:35.938 +0100,605629907.6625385,0,44253.77,100.1452
2020-03-11 15:31:47.754 +0100,67381.128870125,-0.1109466552734375,-0.3610382080078125,-0.9701385498046875,67381.12384512501,-0.5111964674385373,-0.1437644760850963,0.3468240732455065,-0.2503703236579895,0.4934081733226776,-0.05872219055891037,-0.01653724908828735,0.01892724633216858,-0.03858983516693115,XArbitraryZVertical,0.1486219446168002,-0.1119556082497551,-0.2603788459830254,0.9474070629042274,-0.1347390413284302,-0.3399127125740051,-0.9307548999786377,67309.31350925,walking,2,2020-03-11 15:30:35.938 +0100,605629907.6625385,0,44253.77,100.1452
2020-03-11 15:31:47.764 +0100,67381.13891912501,-0.123809814453125,-0.3684234619140625,-0.9714813232421875,67381.133894125,-0.5121747433948496,-0.1388883792045443,0.3439543029553625,-0.3306302428245544,0.4167046546936035,-0.04603169858455658,0.01938621699810028,-0.02382743358612061,-0.03777515888214111,XArbitraryZVertical,0.14783418297723,-0.1093778055617825,-0.2604466464369315,0.9478127512576366,-0.1303335279226303,-0.3372124135494232,-0.9323630928993225,67309.31350925,walking,2,2020-03-11 15:30:35.938 +0100,605629907.6625385,0,44253.77,100.1452
2020-03-11 15:31:47.774 +0100,67381.148969125,-0.11456298828125,-0.3987579345703125,-0.9769134521484375,67381.14394412501,-0.5131598271776986,-0.1347129825546302,0.3408088229754425,-0.2936594486236572,0.3472741842269897,-0.05093564093112946,0.002770811319351196,-0.03417545557022095,-0.03753542900085449,XArbitraryZVertical,0.1468244886585352,-0.1070969480281972,-0.26057132244554,0.9481957689667529,-0.1265812367200851,-0.3342494964599609,-0.9339456558227539,67309.31350925,walking,2,2020-03-11 15:30:35.938 +0100,605629907.6625385,0,44253.77,100.1452
2020-03-11 15:31:47.784 +0100,67381.15901812501,-0.1124725341796875,-0.41412353515625,-0.98150634765625,67381.153993125,-0.5140692608557825,-0.1315207883054645,0.3383430253237142,-0.2209176570177078,0.2204530090093613,-0.05575240403413773,0.009143374860286713,-0.06683498620986938,-0.04175400733947754,XArbitraryZVertical,0.1460159806829837,-0.1053553310775112,-0.2607434646869242,0.9484683972651323,-0.1237069815397263,-0.3319245278835297,-0.9351591467857361,67309.31350925,walking,2,2020-03-11 15:30:35.938 +0100,605629907.6625385,0,44253.77,100.1452
2020-03-11 15:31:47.794 +0100,67381.169068125,-0.129058837890625,-0.37713623046875,-0.9695587158203125,67381.164043125,-0.5152051568077138,-0.1293468690979782,0.3366231280445418,-0.1437682658433914,0.1487026512622833,-0.1117227301001549,0.009274043142795563,-0.08382344245910645,-0.04551541805267334,XArbitraryZVertical,0.1454196102166641,-0.1042008998363586,-0.2611070347639005,0.9485875344406911,-0.1217471808195114,-0.3303016424179077,-0.9359906315803528,67309.31350925,walking,2,2020-03-11 15:30:35.938 +0100,605629907.6625385,0,44253.77,100.1452
2020-03-11 15:31:47.804 +0100,67381.17911712501,-0.1201629638671875,-0.255950927734375,-0.9308319091796875,67381.17409312501,-0.5169224709372154,-0.1263557751267684,0.3356404436116291,-0.08445824682712555,0.3854426741600037,-0.1752906143665314,-0.01007159054279327,-0.04776382446289062,-0.03288626670837402,XArbitraryZVertical,0.1452529175553599,-0.1027887416680791,-0.2616952100122214,0.9486050466984586,-0.1189878508448601,-0.3293739557266235,-0.9366721510887146,67309.31350925,walking,2,2020-03-11 15:30:35.938 +0100,605629907.6625385,0,44253.77,100.1452
2020-03-11 15:31:47.814 +0100,67381.18916712501,-0.133087158203125,-0.2934112548828125,-0.9859619140625,67381.184142125,-0.5187208437155548,-0.1231383196094178,0.3352913363973051,-0.03550082817673683,0.1232523247599602,-0.1595023274421692,-0.004175879061222076,0.07309180498123169,0.006332576274871826,XArbitraryZVertical,0.1454161177486927,-0.1013511819887139,-0.2623114302507573,0.9485645548637784,-0.1159876585006714,-0.3290442824363708,-0.9371641874313354,67309.31350925,walking,2,2020-03-11 15:30:35.938 +0100,605629907.6625385,0,44253.77,100.1452
2020-03-11 15:31:47.824 +0100,67381.19921612501,-0.1601409912109375,-0.293243408203125,-0.9356231689453125,67381.19419212501,-0.5207865547902301,-0.1210730924512521,0.3353864636933606,0.009650196880102158,0.196153312921524,-0.236795499920845,-0.01903955638408661,0.0357213020324707,-0.0485910177230835,XArbitraryZVertical,0.1456285162923727,-0.1005336361943499,-0.2631415325821758,0.9483890327034381,-0.1140481755137444,-0.3291341364383698,-0.9373706579208374,67309.31350925,walking,2,2020-03-11 15:30:35.938 +0100,605629907.6625385,0,44253.77,100.1452
2020-03-11 15:31:47.834 +0100,67381.20926612501,-0.1075439453125,-0.2858734130859375,-0.90631103515625,67381.204241125,-0.5234850082165867,-0.1170227320711919,0.335817107390063,0.0020500672981143,0.4145093560218811,-0.2565252482891083,-0.04990754276514053,0.03629580140113831,0.002061128616333008,XArbitraryZVertical,0.1462332072114277,-0.09886270535565134,-0.2641284080049038,0.9481972392334205,-0.1102339997887611,-0.3295407593250275,-0.9376839995384216,67309.31350925,walking,2,2020-03-11 15:30:35.938 +0100,605629907.6625385,0,44253.77,100.1452
2020-03-11 15:31:47.844 +0100,67381.21931512501,-0.08294677734375,-0.3041229248046875,-0.89605712890625,67381.214291125,-0.5254814781919843,-0.1119336309871268,0.3354521551614575,-0.1258107572793961,0.4469529092311859,-0.09764695912599564,-0.002070412039756775,0.04332119226455688,0.03204154968261719,XArbitraryZVertical,0.1466345567876233,-0.09655123549459387,-0.2647002742358159,0.948213999869769,-0.105474054813385,-0.3291961550712585,-0.9383523464202881,67309.31350925,walking,2,2020-03-11 15:30:35.938 +0100,605629907.6625385,0,44253.77,100.1452
2020-03-11 15:31:47.854 +0100,67381.22936512501,-0.1040496826171875,-0.3455963134765625,-0.90673828125,67381.224340125,-0.5260897415328711,-0.1076195520083748,0.3340527655289987,-0.1569377779960632,0.3747495412826538,-0.004262946080416441,0.0185270681977272,0.02375000715255737,0.04319888353347778,XArbitraryZVertical,0.1465095823147874,-0.09437735989871729,-0.2646662267374276,0.9484616659689115,-0.1014743372797966,-0.3278744518756866,-0.9392557144165039,67309.31350925,walking,2,2020-03-11 15:30:35.938 +0100,605629907.6625385,0,44253.77,100.1452
2020-03-11 15:31:47.865 +0100,67381.239415125,-0.1386871337890625,-0.3632049560546875,-0.929595947265625,67381.234390125,-0.5263427167585488,-0.104197571175555,0.3329180540191544,-0.08499091863632202,0.3048313856124878,-0.02484172396361828,-0.005751907825469971,-0.01879560947418213,0.03322887420654297,XArbitraryZVertical,0.1464097106475854,-0.09263238907949767,-0.264531483962916,0.9486866670256158,-0.09829826653003693,-0.3268022537231445,-0.9399668574333191,67309.31350925,walking,2,2020-03-11 15:30:35.938 +0100,605629907.6625385,0,44253.77,100.1452
2020-03-11 15:31:47.874 +0100,67381.24946412501,-0.1260223388671875,-0.350433349609375,-0.931304931640625,67381.244439125,-0.5266139742731305,-0.1010303837521006,0.3326051893153059,-0.02092378586530685,0.3272706270217896,-0.005136995576322079,-0.04335658997297287,-0.03669995069503784,0.01077950000762939,XArbitraryZVertical,0.1466669725663907,-0.09111101673451151,-0.2644272032454237,0.9488233029594504,-0.09533103555440903,-0.3265065550804138,-0.9403751492500305,67309.31350925,walking,2,2020-03-11 15:30:35.938 +0100,605629907.6625385,0,44253.77,100.1452
2020-03-11 15:31:47.885 +0100,67381.25951412501,-0.1256866455078125,-0.2796478271484375,-0.930816650390625,67381.254489125,-0.5263078781406325,-0.09729827685540547,0.3322421377085947,-0.06342218816280365,0.4418040215969086,0.06124172359704971,-0.03419049829244614,-0.02427157759666443,0.009537696838378906,XArbitraryZVertical,0.1470007820754392,-0.08927266785376055,-0.2640071942186861,0.9490633731955018,-0.09183230996131897,-0.3261633813381195,-0.94084233045578,67309.31350925,walking,2,2020-03-11 15:30:35.938 +0100,605629907.6625385,0,44253.77,100.1452
2020-03-11 15:31:47.895 +0100,67381.26956312501,-0.1320953369140625,-0.2054290771484375,-0.9330902099609375,67381.264538125,-0.5259385818170845,-0.0927408969292733,0.3315982013848587,0.008657066151499748,0.4862947762012482,-0.007887275889515877,-0.03812405467033386,0.04590523242950439,0.0106436014175415,XArbitraryZVertical,0.1473111385889619,-0.08700249296136943,-0.2634958658190079,0.949368080202355,-0.08756303042173386,-0.3255545794963837,-0.9414600133895874,67309.31350925,walking,2,2020-03-11 15:30:35.938 +0100,605629907.6625385,0,44253.77,100.1452
2020-03-11 15:31:47.905 +0100,67381.27961312501,-0.10833740234375,-0.210845947265625,-0.93994140625,67381.274588125,-0.5265985353434706,-0.08811691850939862,0.3327031264320539,0.2313590496778488,0.4061960279941559,-0.1478530466556549,-0.04891865700483322,0.121168464422226,0.008405983448028564,XArbitraryZVertical,0.1484185682426781,-0.08499392211904305,-0.2634673173255458,0.9493854964023074,-0.0831771120429039,-0.32659912109375,-0.9414958953857422,67309.31350925,walking,2,2020-03-11 15:30:35.938 +0100,605629907.6625385,0,44253.77,100.1452
2020-03-11 15:31:47.915 +0100,67381.28966212501,-0.038787841796875,-0.27667236328125,-0.932464599609375,67381.28463712501,-0.5281889451871463,-0.0843497446879705,0.3358575556840109,0.3707992136478424,0.271175354719162,-0.1964083313941956,-0.02879524976015091,0.1187314689159393,0.0008301734924316406,XArbitraryZVertical,0.150351225689632,-0.08371884845286068,-0.2639371627248085,0.9490641042383103,-0.07954255491495132,-0.3295789361000061,-0.9407713413238525,67309.31350925,walking,2,2020-03-11 15:30:35.938 +0100,605629907.6625385,0,44253.77,100.1452
2020-03-11 15:31:47.925 +0100,67381.29971212501,0.0037994384765625,-0.395355224609375,-0.9156494140625,67381.294687125,-0.5291866939920057,-0.08253150127055056,0.3397135945417674,0.3837109804153442,0.04030751436948776,-0.03771331161260605,0.03893828392028809,0.05654311180114746,0.007176518440246582,XArbitraryZVertical,0.1523861348061071,-0.08341481530321378,-0.2642648212743344,0.9486751082612672,-0.07772652804851532,-0.333217054605484,-0.9396408796310425,67309.31350925,walking,2,2020-03-11 15:30:35.938 +0100,605629907.6625385,0,44253.77,100.1452
2020-03-11 15:31:47.935 +0100,67381.309761125,-0.0518798828125,-0.5078887939453125,-0.904754638671875,67381.30473612501,-0.528034513381379,-0.08353694160482143,0.3431437155538768,0.3283912837505341,-0.1515663117170334,0.1727118343114853,0.08237443119287491,-0.05890768766403198,0.02276861667633057,XArbitraryZVertical,0.1539348920654516,-0.08423293438289255,-0.2637870263686983,0.9484856791197879,-0.07857540994882584,-0.3364492058753967,-0.9384177327156067,67309.31350925,walking,2,2020-03-11 15:30:35.938 +0100,605629907.6625385,0,44253.77,100.1452
2020-03-11 15:31:47.946 +0100,67381.31981112501,-0.083953857421875,-0.5067291259765625,-0.916595458984375,67381.314786125,-0.5256465614894579,-0.08652761306643776,0.3461575063839033,0.3015334904193878,-0.2618144154548645,0.206481084227562,0.02941324561834335,-0.1686047613620758,0.03240972757339478,XArbitraryZVertical,0.1550775791956127,-0.08584230458860931,-0.262879332970304,0.9484072980478149,-0.08129355311393738,-0.3392857611179352,-0.9371640682220459,67309.31350925,walking,2,2020-03-11 15:30:35.938 +0100,605629907.6625385,0,44253.77,100.1452
2020-03-11 15:31:47.955 +0100,67381.329860125,-0.0526123046875,-0.3809814453125,-0.92181396484375,67381.324836125,-0.5228118202205642,-0.09104693920164654,0.3489855020849071,0.3041183650493622,-0.432241290807724,0.270679235458374,0.001486174762248993,-0.164786159992218,0.01923269033432007,XArbitraryZVertical,0.1559545859801724,-0.08811492459814951,-0.2618829600760644,0.9483307050051598,-0.08544047921895981,-0.3419446349143982,-0.9358278512954712,67309.31350925,walking,2,2020-03-11 15:30:35.938 +0100,605629907.6625385,0,44253.77,100.1452
2020-03-11 15:31:47.966 +0100,67381.33991012501,-0.0870208740234375,-0.2999420166015625,-0.9145355224609375,67381.334885125,-0.5192845909718772,-0.09709567558953414,0.3520129557751531,0.3596408069133759,-0.5062333941459656,0.3118914067745209,0.03838589787483215,-0.03619509935379028,0.01244562864303589,XArbitraryZVertical,0.156764234349751,-0.09107867949638471,-0.2606832419533251,0.9482477222624622,-0.09099867939949036,-0.3447880148887634,-0.934259295463562,67309.31350925,walking,2,2020-03-11 15:30:35.938 +0100,605629907.6625385,0,44253.77,100.1452
2020-03-11 15:31:47.975 +0100,67381.349959125,-0.0977783203125,-0.2822418212890625,-0.9368438720703125,67381.344935125,-0.5162171287349652,-0.104139741749917,0.3560179287173332,0.5395594239234924,-0.6975554227828979,0.1281207650899887,0.01041164994239807,0.04860091209411621,0.01767903566360474,XArbitraryZVertical,0.1578977558447793,-0.09466345455123557,-0.2597888966774443,0.9479539840418952,-0.09743303060531616,-0.3485446274280548,-0.9322142601013184,67309.31350925,walking,2,2020-03-11 15:30:35.938 +0100,605629907.6625385,0,44253.77,100.1452
2020-03-11 15:31:47.985 +0100,67381.360009125,-0.168487548828125,-0.30218505859375,-0.9134368896484375,67381.35498412501,-0.5154943651453688,-0.1121976882086742,0.3622039789227122,0.721707284450531,-0.7980878353118896,-0.1105927154421806,0.006919242441654205,0.07209253311157227,-0.007605016231536865,XArbitraryZVertical,0.159831406411805,-0.09916984304426579,-0.2601049159297834,0.947082154595413,-0.1046981066465378,-0.3543360829353333,-0.929238498210907,67309.31350925,walking,2,2020-03-11 15:30:35.938 +0100,605629907.6625385,0,44253.77,100.1452
2020-03-11 15:31:47.996 +0100,67381.370058125,-0.1693572998046875,-0.4035491943359375,-0.9084320068359375,67381.365034125,-0.516423546359458,-0.1195417269461265,0.3690548647465576,0.6583099365234375,-0.7304943799972534,-0.2321489751338959,-0.057260662317276,0.0585472583770752,0.01257610321044922,XArbitraryZVertical,0.1620878871471307,-0.1035432821852189,-0.2611656694869877,0.9459380318719643,-0.1112274751067162,-0.3607341051101685,-0.9260126352310181,67309.31350925,walking,2,2020-03-11 15:30:35.938 +0100,605629907.6625385,0,44253.77,100.1452
2020-03-11 15:31:48.005 +0100,67381.380108125,-0.0408782958984375,-0.4743194580078125,-0.9114837646484375,67381.37508312501,-0.5191711586532147,-0.1264706141669338,0.375368207685352,0.5640295743942261,-0.9175325632095337,-0.4056721329689026,-0.05200652033090591,-0.03693583607673645,0.0145103931427002,XArbitraryZVertical,0.1640369354422541,-0.1078001416936172,-0.2630642873989172,0.9445994237796272,-0.1173513829708099,-0.3666151165962219,-0.922942042350769,67309.31350925,walking,2,2020-03-11 15:30:35.938 +0100,605629907.6625385,0,44253.77,100.1452
2020-03-11 15:31:48.016 +0100,67381.39015812501,0.036895751953125,-0.5798187255859375,-0.8959808349609375,67381.385133125,-0.5222124073588089,-0.1362919836569206,0.3812285438641565,0.5163097381591797,-1.302637577056885,-0.2349912375211716,0.08523711562156677,-0.1022601723670959,0.008117198944091797,XArbitraryZVertical,0.1653555613564364,-0.1133897509974098,-0.2653493207403688,0.9430747447393467,-0.1261160522699356,-0.3720611035823822,-0.9196006059646606,67309.31350925,walking,2,2020-03-11 15:30:35.938 +0100,605629907.6625385,0,44253.77,100.1452
2020-03-11 15:31:48.025 +0100,67381.400207125,0.027618408203125,-0.668212890625,-0.863250732421875,67381.39518212501,-0.5221675454709418,-0.1516257632523766,0.38611617202562,0.4395961761474609,-1.734229564666748,0.09964045137166977,0.1768202930688858,-0.2032271921634674,0.01976972818374634,XArbitraryZVertical,0.1656391609797,-0.1211965097998189,-0.266643758558767,0.9416878877971003,-0.1399252712726593,-0.3765933811664581,-0.9157501459121704,67309.31350925,walking,2,2020-03-11 15:30:35.938 +0100,605629907.6625385,0,44253.77,100.1452
2020-03-11 15:31:48.035 +0100,67381.410257125,-0.0679168701171875,-0.6034698486328125,-0.814788818359375,67381.40523212501,-0.5187213626462237,-0.1712609164328371,0.389031453948116,0.2136818170547485,-1.87839949131012,0.4171425104141235,0.1853078603744507,-0.2889223396778107,0.04849034547805786,XArbitraryZVertical,0.164621547745653,-0.1304968266429259,-0.2666826983167864,0.9406117621302015,-0.1576902568340302,-0.3792924284934998,-0.9117406606674194,67309.31350925,walking,2,2020-03-11 15:30:35.938 +0100,605629907.6625385,0,44253.77,100.1452
2020-03-11 15:31:48.050 +0100,67381.420306125,-0.1578826904296875,-0.495147705078125,-0.8536376953125,67381.41528112501,-0.5135677101630126,-0.1930035635316744,0.389168837381776,-0.00422841077670455,-2.078554630279541,0.4949600994586945,0.1095473170280457,-0.2240521907806396,0.09325730800628662,XArbitraryZVertical,0.1621399505603235,-0.1403132386908636,-0.2660386003964923,0.9398117420253731,-0.1774650812149048,-0.3794195353984833,-0.9080456495285034,67309.31350925,walking,2,2020-03-11 15:30:35.938 +0100,605629907.6625385,0,44253.77,100.1452
2020-03-11 15:31:48.056 +0100,67381.430356125,-0.1647491455078125,-0.324737548828125,-0.880615234375,67381.42533112501,-0.5092046361117659,-0.2170366746636751,0.3874098190441264,-0.1608505100011826,-2.325673818588257,0.3360798954963684,0.04149460792541504,-0.1173580288887024,0.05053192377090454,XArbitraryZVertical,0.1584269042670925,-0.1510507723319596,-0.2658726944975043,0.9388269950272963,-0.1993783116340637,-0.3777914643287659,-0.9041691422462463,67309.31350925,walking,2,2020-03-11 15:30:35.938 +0100,605629907.6625385,0,44253.77,100.1452
2020-03-11 15:31:48.066 +0100,67381.440405125,-0.24005126953125,-0.2633056640625,-0.912872314453125,67381.43538012501,-0.5070070798568723,-0.2420057546041551,0.385021141526576,-0.2048946917057037,-2.469925165176392,0.1501911282539368,0.05735543370246887,0.05083936452865601,0.01916837692260742,XArbitraryZVertical,0.1541407668864546,-0.1623239639691614,-0.2667203302101673,0.937417575807141,-0.2221057265996933,-0.3755787312984467,-0.8997831344604492,67309.31350925,walking,2,2020-03-11 15:30:35.938 +0100,605629907.6625385,0,44253.77,100.1452
2020-03-11 15:31:48.075 +0100,67381.450455125,-0.250701904296875,-0.29644775390625,-0.94525146484375,67381.44543012501,-0.5067969965592607,-0.2673483569725278,0.3828086833800788,-0.205360472202301,-2.549510478973389,0.01162846852093935,0.005001276731491089,0.1102199554443359,-0.01820659637451172,XArbitraryZVertical,0.149718182800582,-0.1739305223467915,-0.2684661352482487,0.9355524237574246,-0.2450537234544754,-0.373527318239212,-0.8946653008460999,67309.31350925,walking,2,2020-03-11 15:30:35.938 +0100,605629907.6625385,0,44253.77,100.1452
2020-03-11 15:31:48.107 +0100,67381.460504125,-0.31689453125,-0.3548431396484375,-0.938446044921875,67381.45548012501,-0.5077152520674844,-0.2926158595036433,0.3809380473797447,-0.2091044038534164,-2.529620885848999,-0.06396612524986267,0.01707702875137329,0.07534202933311462,-0.05639505386352539,XArbitraryZVertical,0.1453434059747989,-0.1855999068331359,-0.2706791397960606,0.9333598227089219,-0.2677801251411438,-0.3717914521694183,-0.8888559341430664,67309.31350925,walking,2,2020-03-11 15:30:35.938 +0100,605629907.6625385,0,44253.77,100.1452
2020-03-11 15:31:48.108 +0100,67381.470554125,-0.346649169921875,-0.3537139892578125,-0.922088623046875,67381.45548012501,-0.5077152520674844,-0.2926158595036433,0.3809380473797447,-0.2091044038534164,-2.529620885848999,-0.06396612524986267,0.01707702875137329,0.07534202933311462,-0.05639505386352539,XArbitraryZVertical,0.1453434059747989,-0.1855999068331359,-0.2706791397960606,0.9333598227089219,-0.2677801251411438,-0.3717914521694183,-0.8888559341430664,67309.31350925,walking,2,2020-03-11 15:30:35.938 +0100,605629907.6625385,0,44253.77,100.1452
2020-03-11 15:31:48.109 +0100,67381.480603125,-0.406463623046875,-0.340057373046875,-0.90045166015625,67381.45548012501,-0.5077152520674844,-0.2926158595036433,0.3809380473797447,-0.2091044038534164,-2.529620885848999,-0.06396612524986267,0.01707702875137329,0.07534202933311462,-0.05639505386352539,XArbitraryZVertical,0.1453434059747989,-0.1855999068331359,-0.2706791397960606,0.9333598227089219,-0.2677801251411438,-0.3717914521694183,-0.8888559341430664,67309.31350925,walking,2,2020-03-11 15:30:35.938 +0100,605629907.6625385,0,44253.77,100.1452
2020-03-11 15:31:48.116 +0100,67381.490653125,-0.494415283203125,-0.371246337890625,-0.895599365234375,67381.48562812501,-0.5154114653224326,-0.358404439065321,0.3744118454109871,-0.31087726354599,-1.825565338134766,-0.3040560185909271,-0.07998573780059814,0.02566614747047424,-0.02886849641799927,XArbitraryZVertical,0.1324521844229569,-0.2160211094472497,-0.2784781884952648,0.9264129921150277,-0.326479434967041,-0.365725189447403,-0.8715826272964478,67309.31350925,walking,2,2020-03-11 15:30:35.938 +0100,605629907.6625385,0,44253.77,100.1452
2020-03-11 15:31:48.126 +0100,67381.50070212501,-0.533599853515625,-0.356536865234375,-0.8861846923828125,67381.49567812501,-0.5205605674946451,-0.3720344775317628,0.3731928702438886,-0.2597297728061676,-1.254854559898376,-0.4881840944290161,-0.1559265851974487,-0.006657510995864868,-0.02813225984573364,XArbitraryZVertical,0.129404348940845,-0.2225337196638463,-0.2816763171892664,0.9243330253796035,-0.3384902477264404,-0.3645903766155243,-0.8674665093421936,67309.31350925,walking,2,2020-03-11 15:30:35.938 +0100,605629907.6625385,0,44253.77,100.1452
2020-03-11 15:31:48.136 +0100,67381.510752125,-0.499969482421875,-0.3098907470703125,-0.8841094970703125,67381.505727125,-0.5266299267887123,-0.3797436708094522,0.3726243507157503,-0.258912980556488,-0.7439923882484436,-0.5096515417098999,-0.1883569955825806,0.007522553205490112,-0.02116048336029053,XArbitraryZVertical,0.127363479285178,-0.2264215591949293,-0.2849367248509885,0.9226714915678266,-0.3452443778514862,-0.3640609383583069,-0.865023672580719,67309.31350925,walking,2,2020-03-11 15:30:35.938 +0100,605629907.6625385,0,44253.77,100.1452
2020-03-11 15:31:48.149 +0100,67381.52080112501,-0.49639892578125,-0.2669830322265625,-0.86553955078125,67381.51577712501,-0.5330915404602801,-0.3823398397093409,0.3722424766413278,-0.2546477019786835,-0.2352296262979507,-0.5916910171508789,-0.1524301767349243,0.05381301045417786,-0.01985561847686768,XArbitraryZVertical,0.1260779634557451,-0.2279861271621248,-0.2880550839100283,0.9214937762743171,-0.3475407958030701,-0.3637052476406097,-0.8642533421516418,67309.31350925,walking,2,2020-03-11 15:30:35.938 +0100,605629907.6625385,0,44253.77,100.1452
2020-03-11 15:31:48.156 +0100,67381.530851125,-0.494873046875,-0.21429443359375,-0.860565185546875,67381.525826125,-0.5407504231997358,-0.3791090219893709,0.3724931611195471,-0.2231092303991318,0.327097624540329,-0.7627402544021606,-0.1516874134540558,0.09695422649383545,-0.000252068042755127,XArbitraryZVertical,0.1257925844834573,-0.2270082564489994,-0.2913954038066124,0.9207236810205051,-0.3447130024433136,-0.3639387488365173,-0.8652869462966919,67309.31350925,walking,2,2020-03-11 15:30:35.938 +0100,605629907.6625385,0,44253.77,100.1452
2020-03-11 15:31:48.166 +0100,67381.54090012501,-0.500091552734375,-0.208160400390625,-0.86749267578125,67381.53587612501,-0.5504969617664208,-0.3695595760003004,0.3739178088659018,-0.1749549061059952,0.866615355014801,-1.035734176635742,-0.1586277484893799,0.1509694159030914,0.007490277290344238,XArbitraryZVertical,0.1267648778629452,-0.2233902808302253,-0.2953686262304781,0.9202090157587354,-0.3362467586994171,-0.3652653396129608,-0.8680548667907715,67309.31350925,walking,2,2020-03-11 15:30:35.938 +0100,605629907.6625385,0,44253.77,100.1452
2020-03-11 15:31:48.176 +0100,67381.55095012501,-0.4702606201171875,-0.2528228759765625,-0.8837432861328125,67381.545925125,-0.56272609898433,-0.3539252423549185,0.376495902232332,-0.1495270431041718,1.341706037521362,-1.242565035820007,-0.1777856349945068,0.1595021784305573,0.004827201366424561,XArbitraryZVertical,0.128954995080528,-0.2172807502672974,-0.300148778970931,0.9198207609798846,-0.3223073184490204,-0.3676640689373016,-0.8723193407058716,67309.31350925,walking,2,2020-03-11 15:30:35.938 +0100,605629907.6625385,0,44253.77,100.1452
2020-03-11 15:31:48.186 +0100,67381.56099966668,-0.4259490966796875,-0.2968902587890625,-0.9039154052734375,67381.55597512501,-0.5763226127301753,-0.3333869354108416,0.3792356314716854,-0.1895542293787003,1.724709033966064,-1.298428177833557,-0.1662681102752686,0.1173861026763916,-0.00594329833984375,XArbitraryZVertical,0.1318987976705783,-0.2090525790236772,-0.3052117085884074,0.9196442034790255,-0.3039938807487488,-0.3702105283737183,-0.8777994513511658,67309.31350925,walking,2,2020-03-11 15:30:35.938 +0100,605629907.6625385,0,44253.77,100.1452
2020-03-11 15:31:48.196 +0100,67381.57104866666,-0.3877105712890625,-0.3717193603515625,-0.9251708984375,67381.56602366667,-0.5906790673168261,-0.3096453625591539,0.3815629292780676,-0.1954589933156967,1.922219157218933,-1.386563897132874,-0.143143892288208,0.07547959685325623,-0.01996922492980957,XArbitraryZVertical,0.1351768736353394,-0.1993849896978442,-0.3103406933600978,0.9195985021514714,-0.2828065156936646,-0.3723714649677277,-0.8839457035064697,67309.31350925,walking,2,2020-03-11 15:30:35.938 +0100,605629907.6625385,0,44253.77,100.1452
2020-03-11 15:31:48.206 +0100,67381.58109866668,-0.339385986328125,-0.414093017578125,-0.94171142578125,67381.57607366667,-0.606503383196997,-0.284501078005732,0.3845337761042852,-0.07989899814128876,1.79569947719574,-1.589209198951721,-0.1275301575660706,0.003406047821044922,-0.03545969724655151,XArbitraryZVertical,0.1389670676435721,-0.1892954762320552,-0.3160160120593411,0.9192328862637574,-0.2601816058158875,-0.375126987695694,-0.8897107243537903,67309.31350925,walking,2,2020-03-11 15:30:35.938 +0100,605629907.6625385,0,44253.77,100.1452
2020-03-11 15:31:48.216 +0100,67381.59114766667,-0.3696746826171875,-0.404144287109375,-0.9126739501953125,67381.58612266667,-0.6245242098495413,-0.2588736490462825,0.3886424960863958,-0.04760550335049629,1.856101870536804,-1.85636579990387,-0.1024859547615051,-0.03516218066215515,-0.0471227765083313,XArbitraryZVertical,0.1433179457872779,-0.1793484933517809,-0.3226278329071203,0.9182620661886007,-0.236901119351387,-0.3789325058460236,-0.8945881724357605,67309.31350925,walking,2,2020-03-11 15:30:35.938 +0100,605629907.6625385,0,44253.77,100.1452
2020-03-11 15:31:48.227 +0100,67381.60119766668,-0.3214874267578125,-0.306915283203125,-0.9341888427734375,67381.59617266667,-0.6466232020339523,-0.2332130408723373,0.393281020156576,0.01519645657390356,1.567819237709045,-2.331990003585815,-0.15621417760849,-0.02092492580413818,-0.01402127742767334,XArbitraryZVertical,0.1477443333344915,-0.1698396253502628,-0.3310224825901668,0.9163787659541354,-0.2134614586830139,-0.3832210004329681,-0.8986522555351257,67309.31350925,walking,2,2020-03-11 15:30:35.938 +0100,605629907.6625385,0,44253.77,100.1452
2020-03-11 15:31:48.236 +0100,67381.61124666667,-0.0518951416015625,-0.4973297119140625,-0.8816375732421875,67381.60622166668,-0.671779270879159,-0.2090331076689657,0.3997125245053304,0.1824554949998856,1.384074449539185,-2.299463987350464,-0.1303319036960602,0.08223655819892883,-0.03306758403778076,XArbitraryZVertical,0.1527089088411294,-0.1616155324591014,-0.3408398945288668,0.9134486776122078,-0.191156417131424,-0.3891535401344299,-0.9011208415031433,67309.31350925,walking,2,2020-03-11 15:30:35.938 +0100,605629907.6625385,0,44253.77,100.1452
2020-03-11 15:31:48.246 +0100,67381.62129666666,0.0698699951171875,-0.59820556640625,-0.7998504638671875,67381.61627166667,-0.6916077607205148,-0.1866168230854033,0.4039086304869103,-0.1196624785661697,1.586264371871948,-1.420624494552612,0.1187098920345306,-0.1043159961700439,0.02192938327789307,XArbitraryZVertical,0.1569500193944653,-0.1535689469525818,-0.3482025857450535,0.9113386473110636,-0.1706058233976364,-0.393015444278717,-0.9035665392875671,67309.31350925,walking,2,2020-03-11 15:30:35.938 +0100,605629907.6625385,0,44253.77,100.1452
2020-03-11 15:31:48.256 +0100,67381.63134566667,-0.1016387939453125,-0.509552001953125,-0.8074188232421875,67381.62632066668,-0.7036500277276285,-0.1644208056888819,0.4028350398075521,-0.4398111701011658,1.866337537765503,-0.8094391226768494,0.2204481661319733,-0.2061792612075806,0.1076960563659668,XArbitraryZVertical,0.1594429396334484,-0.1442389369617587,-0.3519266376105069,0.9109997937270948,-0.1505788415670395,-0.3920280039310455,-0.9075461626052856,67309.31350925,walking,2,2020-03-11 15:30:35.938 +0100,605629907.6625385,0,44253.77,100.1452
2020-03-11 15:31:48.266 +0100,67381.64139566667,-0.0592193603515625,-0.4770965576171875,-0.851348876953125,67381.63637066667,-0.7124193973973356,-0.1413546047796451,0.3992268276034519,-0.4959142506122589,2.013226747512817,-0.6758476495742798,0.0281660258769989,-0.1208476424217224,0.1047537326812744,XArbitraryZVertical,0.1612414599506994,-0.1338472817228291,-0.3540704779185465,0.9114384883444351,-0.1298054456710815,-0.3887060880661011,-0.9121721982955933,67309.31350925,walking,2,2020-03-11 15:30:35.938 +0100,605629907.6625385,0,44253.77,100.1452
2020-03-11 15:31:48.277 +0100,67381.65144466667,0.1554718017578125,-0.57550048828125,-0.9031982421875,67381.64641966666,-0.7189066817776238,-0.1194199455859116,0.3948559895375212,-0.5322280526161194,1.807537078857422,-0.3471499383449554,0.05074910074472427,-0.09242299199104309,0.06512939929962158,XArbitraryZVertical,0.1627012789999921,-0.123650070727836,-0.3552715905873152,0.9121518615994495,-0.1099689975380898,-0.3846752643585205,-0.9164779186248779,67309.31350925,walking,2,2020-03-11 15:30:35.938 +0100,605629907.6625385,0,44253.77,100.1452
2020-03-11 15:31:48.286 +0100,67381.66149466667,0.247894287109375,-0.6404266357421875,-0.945587158203125,67381.65646966668,-0.7201853115439882,-0.1031252954857805,0.3891470219625601,-0.6301372051239014,1.314400911331177,0.2566249966621399,0.2507172226905823,-0.1961028873920441,0.0171196460723877,XArbitraryZVertical,0.1628891587623389,-0.1153618728982414,-0.3545785182637332,0.9134729043521984,-0.09524589776992798,-0.3793993592262268,-0.920317530632019,67309.31350925,walking,2,2020-03-11 15:30:35.938 +0100,605629907.6625385,0,44253.77,100.1452
2020-03-11 15:31:48.297 +0100,67381.67154366667,0.1675872802734375,-0.5509033203125,-0.951416015625,67381.66651966667,-0.7147477358487969,-0.09446010845952788,0.3820030128374828,-0.672235369682312,0.8450062870979309,0.8539925813674927,0.3354149460792542,-0.2676485478878021,-0.02180373668670654,XArbitraryZVertical,0.1614341770315993,-0.1097608944610572,-0.3514673567750743,0.9156211956085923,-0.08752111345529556,-0.3727798461914062,-0.9237831234931946,67309.31350925,walking,2,2020-03-11 15:30:35.938 +0100,605629907.6625385,0,44253.77,100.1452
2020-03-11 15:31:48.307 +0100,67381.68159366667,0.017791748046875,-0.304229736328125,-0.9262542724609375,67381.67656866668,-0.7047141456131378,-0.09096703743013985,0.3750059200305977,-0.5177544355392456,0.6407332420349121,1.053137063980103,0.2521154880523682,-0.1846270561218262,-0.0247575044631958,XArbitraryZVertical,0.159356399088312,-0.1061907293315186,-0.3466663035671985,0.9182327919260886,-0.08452863246202469,-0.3662780523300171,-0.9266581535339355,67309.31350925,walking,2,2020-03-11 15:30:35.938 +0100,605629907.6625385,0,44253.77,100.1452
2020-03-11 15:31:48.317 +0100,67381.69164266667,-0.0719146728515625,-0.1174468994140625,-0.9245758056640625,67381.68661866667,-0.6948129331063184,-0.08768195098782704,0.3706580445828069,-0.1628797203302383,0.747442364692688,0.8243706226348877,0.09941402822732925,0.05799740552902222,0.002254486083984375,XArbitraryZVertical,0.1584291452987495,-0.1031793267248833,-0.3419022039428199,0.9205199826675455,-0.08162271976470947,-0.3622288703918457,-0.928508460521698,67309.31350925,walking,2,2020-03-11 15:30:35.938 +0100,605629907.6625385,0,44253.77,100.1452
2020-03-11 15:31:48.327 +0100,67381.70169266667,-0.078704833984375,-0.117828369140625,-0.950897216796875,67381.69666766668,-0.6875307236528874,-0.08245239432967846,0.3703270773397194,0.2031160295009613,0.7933107018470764,0.5232831835746765,0.004860706627368927,0.2444716691970825,0.004466593265533447,XArbitraryZVertical,0.1595350349202786,-0.1001376501314559,-0.3381357893977114,0.9220548613678826,-0.07677580416202545,-0.3619203567504883,-0.9290420413017273,67309.31350925,walking,2,2020-03-11 15:30:35.938 +0100,605629907.6625385,0,44253.77,100.1452
2020-03-11 15:31:48.337 +0100,67381.71174166667,-0.04095458984375,-0.219818115234375,-0.9201812744140625,67381.70671766668,-0.6830923762221635,-0.07625920982190544,0.373471962855563,0.4648578763008118,0.7744365930557251,0.2737793624401093,-0.007771633565425873,0.2470200657844543,-0.02253663539886475,XArbitraryZVertical,0.1622555555631406,-0.09743213528580798,-0.3355506537558519,0.9228140676054493,-0.07093357294797897,-0.364850252866745,-0.9283602237701416,67309.31350925,walking,2,2020-03-11 15:30:35.938 +0100,605629907.6625385,0,44253.77,100.1452
2020-03-11 15:31:48.347 +0100,67381.72179166667,0.07342529296875,-0.3396759033203125,-0.916961669921875,67381.71676666666,-0.6789171267821572,-0.07042866031946043,0.3771323373600284,0.2694201171398163,0.6396464109420776,0.4758332073688507,0.02447019517421722,0.1484359204769135,0.007238686084747314,XArbitraryZVertical,0.1651289240833414,-0.09498750659609498,-0.3330944931610245,0.9234488204103917,-0.06542512774467468,-0.3682558536529541,-0.9274196028709412,67309.31350925,walking,2,2020-03-11 15:30:35.938 +0100,605629907.6625385,0,44253.77,100.1452
2020-03-11 15:31:48.357 +0100,67381.73184066667,-0.0089874267578125,-0.359222412109375,-0.9362640380859375,67381.72681666668,-0.6734110624597207,-0.06750883176117239,0.3793257070546852,0.2803995311260223,0.3971802294254303,0.4692954123020172,0.1360872536897659,0.03061643242835999,0.00983726978302002,XArbitraryZVertical,0.1668905656799798,-0.09353203608732279,-0.3302753671037309,0.9242929244032408,-0.06266231089830399,-0.3702941834926605,-0.9267985820770264,67309.31350925,walking,2,2020-03-11 15:30:35.938 +0100,605629907.6625385,0,44253.77,100.1452
2020-03-11 15:31:48.367 +0100,67381.74189066667,-0.055145263671875,-0.387542724609375,-0.9139862060546875,67381.73686566667,-0.6688062767488251,-0.06536321332286783,0.3827016596505614,0.4474852085113525,0.3899468183517456,0.3104656636714935,0.05160386115312576,0.01420381665229797,-0.0105854868888855,XArbitraryZVertical,0.1690256299672364,-0.09268890620343628,-0.3279132540552621,0.9248307692550012,-0.06059161573648453,-0.3734280467033386,-0.9256781935691833,67309.31350925,walking,2,2020-03-11 15:30:35.938 +0100,605629907.6625385,0,44253.77,100.1452
2020-03-11 15:31:48.377 +0100,67381.75194066667,-0.0414276123046875,-0.4121551513671875,-0.91802978515625,67381.74691566668,-0.6665409885334636,-0.06220524789034491,0.3874653909583275,0.500063419342041,0.4013323783874512,0.03921312838792801,0.002411261200904846,-0.009701520204544067,0.010093092918396,XArbitraryZVertical,0.1718592007620112,-0.09178745094034234,-0.3265177664899782,0.924892136124747,-0.05755681917071342,-0.377842903137207,-0.9240789413452148,67309.31350925,walking,2,2020-03-11 15:30:35.938 +0100,605629907.6625385,0,44253.77,100.1452
2020-03-11 15:31:48.387 +0100,67381.76198966667,0.0029754638671875,-0.4908447265625,-0.91790771484375,67381.75696466667,-0.6676743450039784,-0.05784160434662865,0.3916186169698419,0.2796824872493744,0.3679198026657104,-0.3107885122299194,0.01200485229492188,-0.03047192096710205,0.00471729040145874,XArbitraryZVertical,0.1744481683557507,-0.09052337859590029,-0.3265902166022166,0.9245063829889014,-0.05343275144696236,-0.3816849887371063,-0.9227467179298401,67309.31350925,walking,2,2020-03-11 15:30:35.938 +0100,605629907.6625385,0,44253.77,100.1452
2020-03-11 15:31:48.397 +0100,67381.77203966667,0.0597991943359375,-0.582000732421875,-0.9276275634765625,67381.76701466666,-0.6732410056603885,-0.05266106223989877,0.3931024662268207,-0.0411868691444397,0.2256961017847061,-0.7216224074363708,0.05159706622362137,-0.1077904105186462,0.00453716516494751,XArbitraryZVertical,0.1757354465397276,-0.0888525992632347,-0.3286801789596212,0.9236836104153561,-0.04862186312675476,-0.3830560743808746,-0.9224445223808289,67309.31350925,walking,2,2020-03-11 15:30:35.938 +0100,605629907.6625385,0,44253.77,100.1452
2020-03-11 15:31:48.407 +0100,67381.78208866667,0.0977935791015625,-0.54949951171875,-0.918487548828125,67381.77706366667,-0.6825397051882531,-0.04786831881750542,0.391277597819685,-0.4113092422485352,0.02081224322319031,-0.9324460029602051,0.1040326282382011,-0.2006327211856842,-0.004263579845428467,XArbitraryZVertical,0.1752733350859986,-0.08716319176485914,-0.3325893364306485,0.9225324261057688,-0.04423365741968155,-0.3813697695732117,-0.9233636856079102,67309.31350925,walking,2,2020-03-11 15:30:35.938 +0100,605629907.6625385,0,44253.77,100.1452
2020-03-11 15:31:48.417 +0100,67381.79213866667,0.086029052734375,-0.3987274169921875,-0.922698974609375,67381.78711366667,-0.6929195481253205,-0.04463629141719663,0.3857455825296724,-0.7575258016586304,-0.1534754037857056,-0.9078443050384521,0.1391359567642212,-0.1732511818408966,0.007108092308044434,XArbitraryZVertical,0.1728074475024919,-0.0856733898914185,-0.3372140570365085,0.9214576653089692,-0.0413426011800766,-0.3762500286102295,-0.9255952835083008,67309.31350925,walking,2,2020-03-11 15:30:35.938 +0100,605629907.6625385,0,44253.77,100.1452
2020-03-11 15:31:48.427 +0100,67381.80218766668,0.0285186767578125,-0.260772705078125,-0.947845458984375,67381.79716266667,-0.7027849093733685,-0.04303804467534021,0.3776047696964144,-0.9085368514060974,-0.2532888352870941,-0.851408064365387,0.1260225176811218,-0.03003406524658203,0.005990982055664062,XArbitraryZVertical,0.1688986485288821,-0.08442999703099756,-0.3418022825091122,0.9206062723652122,-0.03999368101358414,-0.3686950504779816,-0.9286896586418152,67309.31350925,walking,2,2020-03-11 15:30:35.938 +0100,605629907.6625385,0,44253.77,100.1452
2020-03-11 15:31:48.437 +0100,67381.81223766667,-0.0069732666015625,-0.191131591796875,-0.9840240478515625,67381.80721266667,-0.7127102714617445,-0.04227450536534999,0.3693422814972853,-0.769888162612915,-0.3223211467266083,-0.9225807785987854,0.06793045252561569,0.1002278029918671,-0.01611340045928955,XArbitraryZVertical,0.1648005989368503,-0.08351566493257395,-0.346489484541508,0.9196797445378702,-0.03941198065876961,-0.3610021471977234,-0.9317318201065063,67309.31350925,walking,2,2020-03-11 15:30:35.938 +0100,605629907.6625385,0,44253.77,100.1452
2020-03-11 15:31:48.447 +0100,67381.82228666668,-0.0243072509765625,-0.2021026611328125,-0.9829864501953125,67381.81726166667,-0.7228108659081578,-0.04212165643463012,0.3636764934410176,-0.4344130754470825,-0.3564399480819702,-0.8779845833778381,0.03238158673048019,0.1645795106887817,-0.05025738477706909,XArbitraryZVertical,0.1617947731206228,-0.08330222538871902,-0.3512447782222523,0.9184280622549752,-0.03935506567358971,-0.3557126522064209,-0.9337663650512695,67309.31350925,walking,2,2020-03-11 15:30:35.938 +0100,605629907.6625385,0,44253.77,100.1452
2020-03-11 15:31:48.457 +0100,67381.83233666667,-0.03912353515625,-0.2518157958984375,-0.9641571044921875,67381.82731166667,-0.7312528788314331,-0.04250810191531672,0.3613222553678458,-0.1007155328989029,-0.3054367005825043,-0.6635239720344543,0.01544393599033356,0.1514071822166443,-0.04840099811553955,XArbitraryZVertical,0.1602904192492638,-0.083751923642568,-0.3552023767370242,0.9171279739338234,-0.03975138813257217,-0.3535114228725433,-0.9345852136611938,67309.31350925,walking,2,2020-03-11 15:30:35.938 +0100,605629907.6625385,0,44253.77,100.1452
2020-03-11 15:31:48.467 +0100,67381.84238566668,-0.0472564697265625,-0.2778778076171875,-0.9398956298828125,67381.83736066667,-0.7372544212833089,-0.04296762569008238,0.3618766792408194,0.1399455815553665,-0.2029536515474319,-0.4663261473178864,0.001048669219017029,0.1022126078605652,-0.02978593111038208,XArbitraryZVertical,0.1602108268764899,-0.08454024516174487,-0.3579771216555458,0.9159900379744386,-0.04017242416739464,-0.3540299832820892,-0.9343708753585815,67309.31350925,walking,2,2020-03-11 15:30:35.938 +0100,605629907.6625385,0,44253.77,100.1452
2020-03-11 15:31:48.477 +0100,67381.85243566667,-0.044189453125,-0.2902679443359375,-0.9232177734375,67381.84741066667,-0.7415282881179227,-0.0427926851353695,0.3638229321154954,0.2042366862297058,-0.06665067374706268,-0.3565581142902374,-0.007277272641658783,0.07797014713287354,-0.006207644939422607,XArbitraryZVertical,0.1609545591552755,-0.08514557595936667,-0.3598751907172824,0.9150593843023709,-0.03997940942645073,-0.3558495342731476,-0.9336877465248108,67309.31350925,walking,2,2020-03-11 15:30:35.938 +0100,605629907.6625385,0,44253.77,100.1452
2020-03-11 15:31:48.487 +0100,67381.86248466666,-0.0224609375,-0.295654296875,-0.919189453125,67381.85745966667,-0.7449834097923528,-0.04162930443410554,0.3661653942255576,0.232213020324707,0.04644758254289627,-0.311454564332962,-0.005331292748451233,0.06776818633079529,0.009680688381195068,XArbitraryZVertical,0.1620916300830531,-0.0853065460268045,-0.3613068681317776,0.9142791400440764,-0.03885835409164429,-0.3580376803874969,-0.9328981637954712,67309.31350925,walking,2,2020-03-11 15:30:35.938 +0100,605629907.6625385,0,44253.77,100.1452
2020-03-11 15:31:48.498 +0100,67381.87253466668,0.0093231201171875,-0.3262939453125,-0.9264373779296875,67381.86750966667,-0.7482123495985783,-0.03968198126271508,0.3686332999203146,0.2302457392215729,0.09803913533687592,-0.3176037967205048,0.01454533636569977,0.06468507647514343,0.01289713382720947,XArbitraryZVertical,0.1634375362652151,-0.08511755537834724,-0.362564660357125,0.9135589488514861,-0.03700646013021469,-0.3603408932685852,-0.9320863485336304,67309.31350925,walking,2,2020-03-11 15:30:35.938 +0100,605629907.6625385,0,44253.77,100.1452
2020-03-11 15:31:48.508 +0100,67381.88258366667,0.0411529541015625,-0.356964111328125,-0.9378814697265625,67381.87755966667,-0.7518764561065823,-0.0375648630492853,0.371158677415209,0.2515941858291626,0.04800872504711151,-0.3799950182437897,0.0443216934800148,0.03640002012252808,0.004813194274902344,XArbitraryZVertical,0.1648226724520966,-0.08490198748064672,-0.3640011391133613,0.9127585751207281,-0.03499875217676163,-0.3626954555511475,-0.931250274181366,67309.31350925,walking,2,2020-03-11 15:30:35.938 +0100,605629907.6625385,0,44253.77,100.1452
2020-03-11 15:31:48.518 +0100,67381.89263366668,0.048797607421875,-0.3541412353515625,-0.9211578369140625,67381.88760866667,-0.7554172282464121,-0.03623102344562703,0.3739816171398633,0.2785744071006775,-0.02969432435929775,-0.2661257088184357,0.07487215101718903,0.008359163999557495,-0.007611989974975586,XArbitraryZVertical,0.1662067209443984,-0.08509237787573486,-0.3654335632323887,0.9119171080467431,-0.03371936082839966,-0.3653247356414795,-0.9302692413330078,67309.31350925,walking,2,2020-03-11 15:30:35.938 +0100,605629907.6625385,0,44253.77,100.1452
2020-03-11 15:31:48.529 +0100,67381.90268266667,0.03271484375,-0.3302764892578125,-0.9161529541015625,67381.89765866667,-0.7570039871523027,-0.03609785395516183,0.3769578353963599,0.3187828361988068,-0.0569850355386734,-0.06071057543158531,0.08235352486371994,0.01395085453987122,0.008025467395782471,XArbitraryZVertical,0.1675236517953472,-0.08569900559789299,-0.3660677839026486,0.9113647932748996,-0.03355608880519867,-0.3680936098098755,-0.9291830062866211,67309.31350925,walking,2,2020-03-11 15:30:35.938 +0100,605629907.6625385,0,44253.77,100.1452
2020-03-11 15:31:48.538 +0100,67381.91273266666,0.00439453125,-0.32965087890625,-0.9065399169921875,67381.90770766667,-0.7569842015163936,-0.03672620823367328,0.3809591523731907,0.4836620688438416,-0.06206821277737617,0.02373453229665756,0.06680024415254593,0.04153308272361755,0.01152974367141724,XArbitraryZVertical,0.1692375191290088,-0.08670317717447001,-0.3660056921173588,0.9109780100563659,-0.03408558666706085,-0.3718110322952271,-0.9276824593544006,67309.31350925,walking,2,2020-03-11 15:30:35.938 +0100,605629907.6625385,0,44253.77,100.1452
2020-03-11 15:31:48.548 +0100,67381.92278166667,-0.015106201171875,-0.36834716796875,-0.881500244140625,67381.91775766667,-0.7561778641281364,-0.03739453709737253,0.3862303454689689,0.5447834730148315,-0.002350465394556522,0.08664765208959579,0.03902618587017059,0.04704675078392029,0.01914840936660767,XArbitraryZVertical,0.1715578497482205,-0.08788558140617807,-0.3655544574414262,0.9106117932337431,-0.03463182225823402,-0.3766991198062897,-0.9256880283355713,67309.31350925,walking,2,2020-03-11 15:30:35.938 +0100,605629907.6625385,0,44253.77,100.1452
2020-03-11 15:31:48.558 +0100,67381.93283166667,-0.011077880859375,-0.4233856201171875,-0.868408203125,67381.92780666667,-0.7549018434607857,-0.03748015565964205,0.3913061045919597,0.4660082161426544,0.07826155424118042,0.0984015166759491,0.01953262090682983,0.01304742693901062,0.04226255416870117,XArbitraryZVertical,0.1739160395137496,-0.08872412368903729,-0.3648434844208485,0.9103682514679322,-0.03463898226618767,-0.3813961148262024,-0.9237625002861023,67309.31350925,walking,2,2020-03-11 15:30:35.938 +0100,605629907.6625385,0,44253.77,100.1452
2020-03-11 15:31:48.568 +0100,67381.94288066667,0.0128326416015625,-0.444671630859375,-0.8711700439453125,67381.93785666667,-0.7538866882997939,-0.03689148203874724,0.3950525590871939,0.2725053131580353,0.1104380413889885,0.06280110776424408,0.02296419441699982,-0.03853043913841248,0.05394041538238525,XArbitraryZVertical,0.175778654249548,-0.08903764784118991,-0.3642269858369552,0.9102267658759985,-0.03404224291443825,-0.3848567008972168,-0.9223483204841614,67309.31350925,walking,2,2020-03-11 15:30:35.938 +0100,605629907.6625385,0,44253.77,100.1452
2020-03-11 15:31:48.578 +0100,67381.95293066667,0.027130126953125,-0.42694091796875,-0.8855743408203125,67381.94790566668,-0.7531675114107322,-0.03615552676554264,0.3966673454060357,0.06439312547445297,0.08620887249708176,0.06159043684601784,0.04617340862751007,-0.05832657217979431,0.05058109760284424,XArbitraryZVertical,0.1766816450285582,-0.08892783511532207,-0.3637898629011509,0.9102374990454887,-0.03334091603755951,-0.3863466084003448,-0.9217508435249329,67309.31350925,walking,2,2020-03-11 15:30:35.938 +0100,605629907.6625385,0,44253.77,100.1452
2020-03-11 15:31:48.588 +0100,67381.96297966667,0.015625,-0.3765716552734375,-0.895355224609375,67381.95795566667,-0.7524316368067296,-0.03579785970510384,0.3966410459839019,-0.04798007756471634,0.03880950063467026,0.07325557619333267,0.06014157831668854,-0.04062002897262573,0.03619885444641113,XArbitraryZVertical,0.176767349377837,-0.08869533451156625,-0.3634240726239112,0.9103895926883676,-0.03301160037517548,-0.3863223493099213,-0.9217728972434998,67309.31350925,walking,2,2020-03-11 15:30:35.938 +0100,605629907.6625385,0,44253.77,100.1452
2020-03-11 15:31:48.598 +0100,67381.97302966667,-0.00555419921875,-0.3433380126953125,-0.8967132568359375,67381.96800466668,-0.7517471725004782,-0.03559121067272043,0.3959854717475959,-0.05064430087804794,0.03307704627513885,0.05319399014115334,0.04845497012138367,0.009144425392150879,0.02667766809463501,XArbitraryZVertical,0.1765358979119842,-0.08842386691367271,-0.3631125769526118,0.9105852019010979,-0.03283011913299561,-0.3857176005840302,-0.9220325946807861,67309.31350925,walking,2,2020-03-11 15:30:35.938 +0100,605629907.6625385,0,44253.77,100.1452
2020-03-11 15:31:48.608 +0100,67381.98307866667,-0.0059967041015625,-0.36419677734375,-0.90350341796875,67381.97805466667,-0.7519100896624817,-0.03502185811424849,0.3959205492412559,0.05939757078886032,0.03505141288042068,-0.07688035815954208,0.02675166726112366,0.04231822490692139,0.02536320686340332,XArbitraryZVertical,0.1766024389213829,-0.0881674530088167,-0.3631383120455018,0.9105868844969981,-0.03230603039264679,-0.3856576979160309,-0.9220761656761169,67309.31350925,walking,2,2020-03-11 15:30:35.938 +0100,605629907.6625385,0,44253.77,100.1452
2020-03-11 15:31:48.618 +0100,67381.99312866667,0.015869140625,-0.3840484619140625,-0.89508056640625,67381.98810366668,-0.7533170689032727,-0.03412853722786531,0.3969249451983637,0.1312946528196335,0.006369699724018574,-0.1654336601495743,0.02547220885753632,0.02238598465919495,0.01821392774581909,XArbitraryZVertical,0.1771612436418648,-0.08806455803828697,-0.3636713684502273,0.9102754905118388,-0.03146907314658165,-0.3865841925144196,-0.9217170476913452,67309.31350925,walking,2,2020-03-11 15:30:35.938 +0100,605629907.6625385,0,44253.77,100.1452
2020-03-11 15:31:48.628 +0100,67382.00317866667,0.03472900390625,-0.396942138671875,-0.88641357421875,67381.99815366667,-0.7553033799353027,-0.03353105287716293,0.3980153818046619,0.08196767419576645,-0.05447489023208618,-0.2087467759847641,0.04677319526672363,0.003539681434631348,0.02623355388641357,XArbitraryZVertical,0.177680013099844,-0.08816399919133544,-0.3644909467793802,0.9098368957864041,-0.03090420551598072,-0.3875896334648132,-0.9213138222694397,67309.31350925,walking,2,2020-03-11 15:30:35.938 +0100,605629907.6625385,0,44253.77,100.1452
2020-03-11 15:31:48.641 +0100,67382.01322766667,0.03472900390625,-0.4114990234375,-0.8792266845703125,67382.00820266666,-0.7579059577377717,-0.03345568118643533,0.3984467518024836,-0.01517033204436302,-0.1314873844385147,-0.2683903872966766,0.06555803120136261,-0.008956372737884521,0.03473567962646484,XArbitraryZVertical,0.1777755797475176,-0.08843841495369437,-0.3656554188271541,0.9093241769831024,-0.03082916885614395,-0.3879872262477875,-0.921148955821991,67309.31350925,walking,2,2020-03-11 15:30:35.938 +0100,605629907.6625385,0,44253.77,100.1452
2020-03-11 15:31:48.650 +0100,67382.02327766667,0.0236968994140625,-0.4150543212890625,-0.88031005859375,67382.01825266668,-0.7609932798466365,-0.03378929004961687,0.3979199737147939,-0.1335567086935043,-0.1734227240085602,-0.2834184169769287,0.06587222218513489,-0.02399885654449463,0.04211640357971191,XArbitraryZVertical,0.1773376036905094,-0.08876925929482692,-0.3671035850756194,0.9087938396326468,-0.03114337101578712,-0.3875016570091248,-0.9213427901268005,67309.31350925,walking,2,2020-03-11 15:30:35.938 +0100,605629907.6625385,0,44253.77,100.1452
2020-03-11 15:31:48.658 +0100,67382.03332666667,0.0059661865234375,-0.408843994140625,-0.8929595947265625,67382.02830166667,-0.7641225477520576,-0.03436312870672465,0.3961941415841286,-0.2581854462623596,-0.1940278708934784,-0.2692139148712158,0.05539175868034363,-0.02914568781852722,0.04168200492858887,XArbitraryZVertical,0.1763068052399852,-0.08899455410380828,-0.3686258467872946,0.9083560801712984,-0.03169499710202217,-0.3859100937843323,-0.921991765499115,67309.31350925,walking,2,2020-03-11 15:30:35.938 +0100,605629907.6625385,0,44253.77,100.1452
2020-03-11 15:31:48.669 +0100,67382.04337666667,-0.0020294189453125,-0.39654541015625,-0.9038848876953125,67382.03835166668,-0.7672698044970051,-0.03498941124735389,0.3932398374145671,-0.3705385625362396,-0.1934503316879272,-0.2787991166114807,0.03827819228172302,-0.02566251158714294,0.03014779090881348,XArbitraryZVertical,0.1747057754886046,-0.08901876803186033,-0.3701948475546673,0.9080249067832162,-0.03231216222047806,-0.3831829726696014,-0.9231070876121521,67309.31350925,walking,2,2020-03-11 15:30:35.938 +0100,605629907.6625385,0,44253.77,100.1452
2020-03-11 15:31:48.679 +0100,67382.05342566667,-0.00787353515625,-0.391357421875,-0.9187164306640625,67382.04840066667,-0.7706025276531492,-0.03549944595363276,0.3892910620088871,-0.4303973615169525,-0.1782119870185852,-0.2973645627498627,0.03080683946609497,-0.01701429486274719,0.02071082592010498,XArbitraryZVertical,0.1726653817044243,-0.088819693338757,-0.3718642929005069,0.9077525224069138,-0.0328364223241806,-0.3795326054096222,-0.9245954751968384,67309.31350925,walking,2,2020-03-11 15:30:35.938 +0100,605629907.6625385,0,44253.77,100.1452
2020-03-11 15:31:48.688 +0100,67382.06347566667,-0.0106048583984375,-0.369537353515625,-0.9320831298828125,67382.05845066666,-0.773987654626455,-0.03595590471714249,0.3849488174302762,-0.4421634376049042,-0.1750779002904892,-0.2850260734558105,0.02544368803501129,-0.01584723591804504,0.007502436637878418,XArbitraryZVertical,0.1704540488319952,-0.0885218393742126,-0.3735616810107941,0.9075025445407192,-0.03331738710403442,-0.3755117058753967,-0.9262186288833618,67309.31350925,walking,2,2020-03-11 15:30:35.938 +0100,605629907.6625385,0,44253.77,100.1452
