loggingTime(txt),accelerometerTimestamp_sinceReboot(s),accelerometerAccelerationX(G),accelerometerAccelerationY(G),accelerometerAccelerationZ(G),motionTimestamp_sinceReboot(s),motionYaw(rad),motionRoll(rad),motionPitch(rad),motionRotationRateX(rad/s),motionRotationRateY(rad/s),motionRotationRateZ(rad/s),motionUserAccelerationX(G),motionUserAccelerationY(G),motionUserAccelerationZ(G),motionAttitudeReferenceFrame(txt),motionQuaternionX(R),motionQuaternionY(R),motionQuaternionZ(R),motionQuaternionW(R),motionGravityX(G),motionGravityY(G),motionGravityZ(G),activityTimestamp_sinceReboot(s),activity(txt),activityActivityConfidence(Z),activityActivityStartDate(txt),altimeterTimestamp_sinceReboot(s),altimeterReset(bool),altimeterRelativeAltitude(m),altimeterPressure(kPa)
2020-03-06 13:32:01.278 +0100,28741.230104125,-0.1197052001953125,-0.8885345458984375,-0.3042449951171875,28741.220055125,0.5401838775977202,-0.440598578620617,1.236522027503707,-0.4021630585193634,-0.1248500496149063,0.226057842373848,0.02996516227722168,0.02319163084030151,-0.02801066637039185,XArbitraryZVertical,0.5926181661913287,-0.02069861371836941,0.09010610677683001,0.8001600744365109,-0.1399214416742325,-0.9446486234664917,-0.296750545501709,28739.032665375,unknown,2,2020-03-06 13:31:58.985 +0100,605190718.9852278,0,0.4899998,98.77559
2020-03-06 13:32:01.282 +0100,28741.240152125,-0.1594696044921875,-0.88470458984375,-0.2811737060546875,28741.230104125,0.5380008481400645,-0.4401930042087093,1.232969556254705,-0.288137674331665,-0.1951190978288651,-0.07156755030155182,0.02924445271492004,0.03552418947219849,-0.00908130407333374,XArbitraryZVertical,0.5912742023992852,-0.02177522573190798,0.08992435575660265,0.801145581100856,-0.1412301510572433,-0.9434771537780762,-0.2998413145542145,28739.032665375,unknown,2,2020-03-06 13:31:58.985 +0100,605190718.9852278,0,0.4899998,98.77559
2020-03-06 13:32:01.283 +0100,28741.250200125,-0.143798828125,-0.9128265380859375,-0.278167724609375,28741.240152125,0.5306579057878036,-0.4347772987951232,1.231906246911889,-0.09914965182542801,-0.0954444482922554,-0.2450660914182663,-0.002415597438812256,0.06001240015029907,0.005955636501312256,XArbitraryZVertical,0.5905611623391259,-0.02195059500758926,0.08875187450252298,0.8017971736746461,-0.1400266736745834,-0.9431242346763611,-0.3015113770961761,28739.032665375,unknown,2,2020-03-06 13:31:58.985 +0100,605190718.9852278,0,0.4899998,98.77559
2020-03-06 13:32:01.284 +0100,28741.260249125,-0.09912109375,-0.966278076171875,-0.2844696044921875,28741.250200125,0.5242198819168429,-0.4294416879158903,1.232880721862347,0.08396938443183899,-0.07089764624834061,-0.207168385386467,-0.02290260791778564,0.05137896537780762,0.02553147077560425,XArbitraryZVertical,0.5906150715200176,-0.02155304394807127,0.0875923206136601,0.8018958064470391,-0.1380332857370377,-0.9434477090835571,-0.3014186024665833,28739.032665375,unknown,2,2020-03-06 13:31:58.985 +0100,605190718.9852278,0,0.4899998,98.77559
2020-03-06 13:32:01.285 +0100,28741.270297125,-0.10699462890625,-1.000335693359375,-0.2799072265625,28741.260249125,0.5211086038071538,-0.4276423017924199,1.234543507805831,0.1074978709220886,-0.1592991501092911,-0.1164755001664162,0.01838453114032745,0.004519820213317871,0.01733243465423584,XArbitraryZVertical,0.5911169300424043,-0.02148089377325738,0.08661595042739065,0.8016339984727771,-0.1368399411439896,-0.9439976811408997,-0.300238698720932,28739.032665375,unknown,2,2020-03-06 13:31:58.985 +0100,605190718.9852278,0,0.4899998,98.77559
2020-03-06 13:32:01.286 +0100,28741.280346125,-0.1359405517578125,-0.979949951171875,-0.2787322998046875,28741.270297125,0.5193311033651671,-0.4278345985036021,1.235171522880305,-0.06612230837345123,-0.206099808216095,-0.04145798459649086,0.04129806160926819,-0.04460477828979492,0.01763641834259033,XArbitraryZVertical,0.5913377640158349,-0.02198178411118036,0.08574848669195308,0.8015508024120752,-0.1366516649723053,-0.9442046880722046,-0.2996729016304016,28739.032665375,unknown,2,2020-03-06 13:31:58.985 +0100,605190718.9852278,0,0.4899998,98.77559
2020-03-06 13:32:01.288 +0100,28741.290394125,-0.137847900390625,-0.9568634033203125,-0.291900634765625,28741.280346125,0.5156384389826443,-0.4262088301819441,1.233949346302206,-0.2339504510164261,-0.1552416980266571,-0.09733270108699799,0.0114414244890213,-0.05236256122589111,0.02147191762924194,XArbitraryZVertical,0.5907756707265608,-0.02261833342073858,0.08493907291145307,0.8020335606083516,-0.1366412043571472,-0.9438014626502991,-0.3009450435638428,28739.032665375,unknown,2,2020-03-06 13:31:58.985 +0100,605190718.9852278,0,0.4899998,98.77559
2020-03-06 13:32:01.289 +0100,28741.300443125,-0.119476318359375,-0.9683380126953125,-0.2980804443359375,28741.290394125,0.5084999724202107,-0.420863909028529,1.232142170643953,-0.2779507339000702,-0.1248341202735901,-0.1577363461256027,-0.006150335073471069,-0.01957517862319946,0.0186271071434021,XArbitraryZVertical,0.5897994376088204,-0.0228694497396053,0.08393173298340285,0.8028505266794799,-0.135727271437645,-0.9432026147842407,-0.3032272160053253,28739.032665375,unknown,2,2020-03-06 13:31:58.985 +0100,605190718.9852278,0,0.4899998,98.77559
2020-03-06 13:32:01.290 +0100,28741.310491125,-0.1280670166015625,-0.95941162109375,-0.3010406494140625,28741.300443125,0.5017790988008193,-0.415720014054554,1.229912576568517,-0.2836434841156006,-0.09107509255409241,-0.0586467906832695,0.003726691007614136,-0.02454519271850586,0.004841506481170654,XArbitraryZVertical,0.5886785371977826,-0.02313543925423328,0.083088132415719,0.8037528797177903,-0.1350147575139999,-0.9424595832824707,-0.3058446645736694,28739.032665375,unknown,2,2020-03-06 13:31:58.985 +0100,605190718.9852278,0,0.4899998,98.77559
2020-03-06 13:32:01.290 +0100,28741.320540125,-0.1469573974609375,-0.9457855224609375,-0.295166015625,28741.310491125,0.4994614160704872,-0.4142920551751033,1.227459317282712,-0.2247877568006516,-0.05602381378412247,0.1106873750686646,0.01738850772380829,-0.02494090795516968,0.01178830862045288,XArbitraryZVertical,0.5876779419255964,-0.02362702149897685,0.08294769204815933,0.8044850038301512,-0.1355082243680954,-0.9416365623474121,-0.3081527948379517,28739.032665375,unknown,2,2020-03-06 13:31:58.985 +0100,605190718.9852278,0,0.4899998,98.77559
2020-03-06 13:32:01.291 +0100,28741.330588125,-0.150848388671875,-0.93206787109375,-0.299163818359375,28741.320540125,0.5007917703116269,-0.4160477028884577,1.224893607451048,-0.2150794714689255,-0.05034355819225311,0.1562069207429886,-0.003982961177825928,-0.01129645109176636,0.01195800304412842,XArbitraryZVertical,0.5868098209797646,-0.02434429607192819,0.08335575708042969,0.8050549029709443,-0.1370249390602112,-0.9407697916030884,-0.3101231753826141,28739.032665375,unknown,2,2020-03-06 13:31:58.985 +0100,605190718.9852278,0,0.4899998,98.77559
2020-03-06 13:32:01.295 +0100,28741.340637125,-0.144683837890625,-0.912261962890625,-0.2995758056640625,28741.330588125,0.5005547489994953,-0.416533691159461,1.222218129972026,-0.2863281965255737,-0.09496156871318817,0.02471887320280075,-0.01155769824981689,-0.0005797147750854492,0.01611459255218506,XArbitraryZVertical,0.5858284441308926,-0.02502873099799597,0.08352329972682823,0.8057309868210376,-0.1381935030221939,-0.9398592710494995,-0.3123571872711182,28739.032665375,unknown,2,2020-03-06 13:31:58.985 +0100,605190718.9852278,0,0.4899998,98.77559
2020-03-06 13:32:01.304 +0100,28741.350685125,-0.134307861328125,-0.9296875,-0.28857421875,28741.340637125,0.4947461042597329,-0.4123416477626074,1.219383409537391,-0.3885174095630646,-0.1578451991081238,-0.1666369736194611,-0.009695425629615784,0.01695698499679565,0.0143398642539978,XArbitraryZVertical,0.5845202991179701,-0.02548030165080968,0.08283566952987312,0.8067372905995679,-0.1379500776529312,-0.9388872981071472,-0.3153735399246216,28739.032665375,unknown,2,2020-03-06 13:31:58.985 +0100,605190718.9852278,0,0.4899998,98.77559
2020-03-06 13:32:01.314 +0100,28741.360734125,-0.1381378173828125,-0.9319305419921875,-0.2783050537109375,28741.350685125,0.483372232329759,-0.4034153004248975,1.216837849056786,-0.3968145847320557,-0.1930049955844879,-0.3082836270332336,-0.002346739172935486,0.02149468660354614,0.02495747804641724,XArbitraryZVertical,0.583052878120639,-0.0255874552977391,0.08122760750102717,0.8079582952075035,-0.1360671669244766,-0.9380080103874207,-0.3187892436981201,28739.032665375,unknown,2,2020-03-06 13:31:58.985 +0100,605190718.9852278,0,0.4899998,98.77559
2020-03-06 13:32:01.324 +0100,28741.370782125,-0.1479339599609375,-0.932586669921875,-0.2671356201171875,28741.360734125,0.4699604363804998,-0.3927962303419725,1.215033694715624,-0.321695864200592,-0.1848922073841095,-0.3899281620979309,-0.0008348375558853149,0.0003905296325683594,0.03666001558303833,XArbitraryZVertical,0.5817746568145892,-0.02547052019109024,0.07915958070097139,0.8090878426731057,-0.1333218514919281,-0.9373811483383179,-0.3217790126800537,28739.032665375,unknown,2,2020-03-06 13:31:58.985 +0100,605190718.9852278,0,0.4899998,98.77559
2020-03-06 13:32:01.334 +0100,28741.380831125,-0.1491546630859375,-0.963897705078125,-0.255096435546875,28741.370782125,0.4563491297904872,-0.3817611487128721,1.214264805502216,-0.2121040821075439,-0.1524540483951569,-0.4248443245887756,-0.01320414245128632,0.009094476699829102,0.05202525854110718,XArbitraryZVertical,0.5808800263665482,-0.02507247723140942,0.07696630336087429,0.8099542731684033,-0.1300314962863922,-0.9371130466461182,-0.3238995373249054,28739.032665375,unknown,2,2020-03-06 13:31:58.985 +0100,605190718.9852278,0,0.4899998,98.77559
2020-03-06 13:32:01.345 +0100,28741.390879125,-0.164398193359375,-0.98150634765625,-0.2574920654296875,28741.380831125,0.4435110648831898,-0.3710212450688827,1.214295928549404,-0.1293889731168747,-0.09003301709890366,-0.3878162503242493,-0.02172088623046875,-0.006703019142150879,0.06337070465087891,XArbitraryZVertical,0.5803252057316046,-0.02444391318893277,0.07487874624674951,0.8105666956068648,-0.1265348941087723,-0.9371238946914673,-0.3252502977848053,28739.032665375,unknown,2,2020-03-06 13:31:58.985 +0100,605190718.9852278,0,0.4899998,98.77559
2020-03-06 13:32:01.354 +0100,28741.400927125,-0.1776123046875,-0.9687957763671875,-0.2576446533203125,28741.390879125,0.4334844900712736,-0.3619698345730986,1.214769033373994,-0.05889629572629929,0.01910493895411491,-0.2887668907642365,-0.03323463350534439,-0.04094654321670532,0.07209879159927368,XArbitraryZVertical,0.5800503885303997,-0.02361778199109122,0.07337656219098601,0.810925152989203,-0.1234287172555923,-0.9372889399528503,-0.3259674906730652,28739.032665375,unknown,2,2020-03-06 13:31:58.985 +0100,605190718.9852278,0,0.4899998,98.77559
2020-03-06 13:32:01.364 +0100,28741.410976125,-0.1711578369140625,-0.9392242431640625,-0.2749176025390625,28741.400927125,0.4277801140638993,-0.3558101177221409,1.21532190200626,0.008603388443589211,0.1488355100154877,-0.1369118392467499,-0.05040949583053589,-0.03611516952514648,0.06713300943374634,XArbitraryZVertical,0.5799714780530945,-0.02269908307054812,0.07277704313456729,0.811061800203839,-0.1212379336357117,-0.9374814629554749,-0.3262356817722321,28739.032665375,unknown,2,2020-03-06 13:31:58.985 +0100,605190718.9852278,0,0.4899998,98.77559
2020-03-06 13:32:01.375 +0100,28741.421024125,-0.1469879150390625,-0.9054107666015625,-0.297088623046875,28741.410976125,0.4260833647046261,-0.3524446491937892,1.216402757041453,0.143066868185997,0.2234097719192505,-0.08830025047063828,-0.05730527639389038,-0.0198705792427063,0.06201076507568359,XArbitraryZVertical,0.5802452135615692,-0.02168097398918177,0.07292449217985131,0.8108806688505272,-0.1197895407676697,-0.9378570914268494,-0.3256908655166626,28739.032665375,unknown,2,2020-03-06 13:31:58.985 +0100,605190718.9852278,0,0.4899998,98.77559
2020-03-06 13:32:01.384 +0100,28741.431073125,-0.0737457275390625,-0.98016357421875,-0.30517578125,28741.421024125,0.4254480102603465,-0.3496798640005462,1.218788584168002,0.2556464076042175,0.1899095922708511,-0.1258641481399536,-0.04760537296533585,0.02868407964706421,0.043590247631073,XArbitraryZVertical,0.5810542398349973,-0.02042482475097424,0.07316070124284302,0.8103124406392184,-0.1181216537952423,-0.9386823773384094,-0.3239175975322723,28739.032665375,unknown,2,2020-03-06 13:31:58.985 +0100,605190718.9852278,0,0.4899998,98.77559
2020-03-06 13:32:01.395 +0100,28741.441121125,-0.058135986328125,-1.009963989257812,-0.2952117919921875,28741.431073125,0.425460475836467,-0.3481923822110773,1.221492694562182,0.2200193405151367,0.1160607486963272,-0.06133705005049706,0.00893806666135788,-0.001072466373443604,0.01405000686645508,XArbitraryZVertical,0.5820382310986829,-0.01945696569448715,0.07324919315177986,0.8096218012536288,-0.1167732253670692,-0.9396112561225891,-0.3217058479785919,28739.032665375,unknown,2,2020-03-06 13:31:58.985 +0100,605190718.9852278,0,0.4899998,98.77559
2020-03-06 13:32:01.405 +0100,28741.451170125,-0.084075927734375,-0.9980010986328125,-0.2818145751953125,28741.441121125,0.4269603678141593,-0.3487400079953181,1.223135488145315,0.09459910541772842,0.07052202522754669,0.0259360708296299,0.05782666057348251,-0.0631946325302124,0.01958435773849487,XArbitraryZVertical,0.5827030771035959,-0.01902182916153893,0.07348455145661725,0.8091323811938115,-0.1164217069745064,-0.9401722550392151,-0.3201905786991119,28739.032665375,unknown,2,2020-03-06 13:31:58.985 +0100,605190718.9852278,0,0.4899998,98.77559
2020-03-06 13:32:01.415 +0100,28741.461218125,-0.1063385009765625,-0.981658935546875,-0.2780914306640625,28741.451170125,0.4287099394965397,-0.3497659924985073,1.223269744868278,-0.05396004766225815,0.06468428671360016,0.05051218718290329,0.04740019887685776,-0.06674981117248535,0.03165990114212036,XArbitraryZVertical,0.582808924567765,-0.01890906295969619,0.07387598519758529,0.8090231461216709,-0.116706907749176,-0.9402179718017578,-0.3199523985385895,28739.032665375,unknown,2,2020-03-06 13:31:58.985 +0100,605190718.9852278,0,0.4899998,98.77559
2020-03-06 13:32:01.425 +0100,28741.471267125,-0.1118927001953125,-0.9783172607421875,-0.27587890625,28741.461218125,0.4291605445832484,-0.3494974807598498,1.222134715836012,-0.1799563318490982,0.08662553876638412,0.03388873487710953,0.0204731747508049,-0.04873508214950562,0.04210841655731201,XArbitraryZVertical,0.5823681479643755,-0.01882191771183117,0.07428374961209581,0.8093051882867521,-0.1169863343238831,-0.9398307800292969,-0.3209861516952515,28739.032665375,unknown,2,2020-03-06 13:31:58.985 +0100,605190718.9852278,0,0.4899998,98.77559
2020-03-06 13:32:01.435 +0100,28741.481315125,-0.0951385498046875,-0.9759063720703125,-0.27789306640625,28741.471267125,0.4284171700712033,-0.3478565503673028,1.220006348628559,-0.2826965749263763,0.1130560636520386,0.04473915696144104,0.005582764744758606,-0.03925621509552002,0.04570561647415161,XArbitraryZVertical,0.5814834850674487,-0.01866007049678909,0.07473590112623829,0.8099032186936495,-0.1171410903334618,-0.93910151720047,-0.3230575025081635,28739.032665375,unknown,2,2020-03-06 13:31:58.985 +0100,605190718.9852278,0,0.4899998,98.77559
2020-03-06 13:32:01.445 +0100,28741.491364125,-0.080108642578125,-0.9640655517578125,-0.295196533203125,28741.481315125,0.4275323858185629,-0.3458842803263201,1.216797841987252,-0.3881399035453796,0.1288414150476456,0.08505915105342865,0.01264962553977966,-0.0397379994392395,0.05002015829086304,XArbitraryZVertical,0.5801685644615564,-0.01854789334078565,0.07536404893717433,0.8107900719367828,-0.1175246015191078,-0.937994122505188,-0.3261208236217499,28739.032665375,unknown,2,2020-03-06 13:31:58.985 +0100,605190718.9852278,0,0.4899998,98.77559
2020-03-06 13:32:01.455 +0100,28741.501412125,-0.069000244140625,-0.9431610107421875,-0.31329345703125,28741.491364125,0.4267664570817475,-0.3439692470370225,1.212553431428622,-0.4639855623245239,0.1232105940580368,0.110027514398098,0.03030373901128769,-0.03572475910186768,0.04573518037796021,XArbitraryZVertical,0.5784549975808865,-0.01855991855580054,0.07615321818458126,0.8119397016868837,-0.1182414889335632,-0.9365143775939941,-0.3300907015800476,28739.032665375,unknown,2,2020-03-06 13:31:58.985 +0100,605190718.9852278,0,0.4899998,98.77559
2020-03-06 13:32:01.465 +0100,28741.511461125,-0.0642547607421875,-0.9160003662109375,-0.3299560546875,28741.501412125,0.4259744870019892,-0.3421250121576613,1.207813693937991,-0.4560549259185791,0.1067479997873306,0.1201262250542641,0.04641084372997284,-0.01962059736251831,0.03043109178543091,XArbitraryZVertical,0.5765487619264101,-0.0186704917607804,0.07697013737940607,0.8132149092811809,-0.1191203221678734,-0.9348419308662415,-0.3344858884811401,28739.032665375,unknown,2,2020-03-06 13:31:58.985 +0100,605190718.9852278,0,0.4899998,98.77559
2020-03-06 13:32:01.475 +0100,28741.521509125,-0.0725860595703125,-0.8933258056640625,-0.3349151611328125,28741.511461125,0.4251522082777386,-0.3404044192332853,1.203612322306505,-0.3509397506713867,0.08570494502782822,0.1121928617358208,0.05552248656749725,0.002942681312561035,0.01666492223739624,XArbitraryZVertical,0.5748504851202776,-0.01876489109704074,0.07766591020824176,0.8143480470361749,-0.1198548749089241,-0.9333419799804688,-0.3383896052837372,28739.032665375,unknown,2,2020-03-06 13:31:58.985 +0100,605190718.9852278,0,0.4899998,98.77559
2020-03-06 13:32:01.485 +0100,28741.531558125,-0.078399658203125,-0.888671875,-0.3346099853515625,28741.521509125,0.4251260052414882,-0.3394700333800294,1.200970139790591,-0.1760161370038986,0.08645675331354141,0.1021474227309227,0.05265486240386963,0.02912092208862305,0.006039738655090332,XArbitraryZVertical,0.5737907594401354,-0.01874192048486365,0.07825908314559119,0.8150389498461731,-0.1203594654798508,-0.9323902130126953,-0.3408257961273193,28739.032665375,unknown,2,2020-03-06 13:31:58.985 +0100,605190718.9852278,0,0.4899998,98.77559
2020-03-06 13:32:01.499 +0100,28741.541606125,-0.08221435546875,-0.9027862548828125,-0.328033447265625,28741.531558125,0.426613562568009,-0.3399194718093971,1.200181866333139,0.01645362749695778,0.09459762275218964,0.0838778018951416,0.04568305611610413,0.0435146689414978,0.007853388786315918,XArbitraryZVertical,0.5735169327609033,-0.01860294794731101,0.07883654060037297,0.8151792056515197,-0.1207576543092728,-0.9321049451828003,-0.3414645195007324,28739.032665375,unknown,2,2020-03-06 13:31:58.985 +0100,605190718.9852278,0,0.4899998,98.77559
2020-03-06 13:32:01.510 +0100,28741.551654125,-0.0839080810546875,-0.936187744140625,-0.3096923828125,28741.541606125,0.4294375401672853,-0.3415170870705363,1.201091580848206,0.1629993915557861,0.1091520637273788,0.06731853634119034,0.03956618905067444,0.03934252262115479,0.007333695888519287,XArbitraryZVertical,0.5739584597520956,-0.0183227169405522,0.07941303141231147,0.8148187229304232,-0.1210189461708069,-0.93243408203125,-0.3404719233512878,28739.032665375,unknown,2,2020-03-06 13:31:58.985 +0100,605190718.9852278,0,0.4899998,98.77559
2020-03-06 13:32:01.515 +0100,28741.561703125,-0.084503173828125,-0.97442626953125,-0.298736572265625,28741.551654125,0.4332248308857271,-0.3439439351532425,1.202969797837242,0.2184668183326721,0.1123987659811974,0.07403925061225891,0.03804656863212585,0.014384925365448,0.01925987005233765,XArbitraryZVertical,0.5748157103729631,-0.01797156327809363,0.08001740924761552,0.8141628373133161,-0.1212540864944458,-0.9331111311912537,-0.3385278582572937,28739.032665375,unknown,2,2020-03-06 13:31:58.985 +0100,605190718.9852278,0,0.4899998,98.77559
2020-03-06 13:32:01.525 +0100,28741.571751125,-0.088623046875,-1.007369995117188,-0.2993011474609375,28741.561703125,0.4373327432135704,-0.3466333573346109,1.20484975262522,0.1748642176389694,0.115685909986496,0.08685518056154251,0.03692609071731567,-0.02273660898208618,0.03402084112167358,XArbitraryZVertical,0.5756858097359693,-0.01763030086273414,0.0806722511954827,0.8134906228570338,-0.1215679123997688,-0.9337854385375977,-0.3365500271320343,28739.032665375,unknown,2,2020-03-06 13:31:58.985 +0100,605190718.9852278,0,0.4899998,98.77559
2020-03-06 13:32:01.535 +0100,28741.581800125,-0.0858917236328125,-1.020050048828125,-0.3108673095703125,28741.571751125,0.4409109763731405,-0.3488131206071034,1.205847083600991,0.05473195016384125,0.1100975275039673,0.1096824705600739,0.03532686829566956,-0.05820780992507935,0.03736573457717896,XArbitraryZVertical,0.5761896682765321,-0.01735040719261886,0.08136960308511956,0.8130703487476437,-0.1219828501343727,-0.9341418743133545,-0.3354088664054871,28739.032665375,unknown,2,2020-03-06 13:31:58.985 +0100,605190718.9852278,0,0.4899998,98.77559
2020-03-06 13:32:01.545 +0100,28741.591848125,-0.08526611328125,-1.009368896484375,-0.3215789794921875,28741.581800125,0.4438709272049195,-0.3505001976136791,1.205477420243337,-0.06959932297468185,0.09383893013000488,0.1471986919641495,0.03558385372161865,-0.08296751976013184,0.03075462579727173,XArbitraryZVertical,0.5761419573770822,-0.01723420710025689,0.0821353545247283,0.8130296219723887,-0.1226670891046524,-0.9340099096298218,-0.3355268537998199,28739.032665375,unknown,2,2020-03-06 13:31:58.985 +0100,605190718.9852278,0,0.4899998,98.77559
2020-03-06 13:32:01.555 +0100,28741.601897125,-0.0874176025390625,-0.9806976318359375,-0.3383941650390625,28741.591848125,0.4467029556433598,-0.3522146572227304,1.204016980615368,-0.1331913471221924,0.07992018759250641,0.1742276400327682,0.0386587530374527,-0.08330726623535156,0.01905232667922974,XArbitraryZVertical,0.5756753398946182,-0.01731711548351694,0.0829856221581831,0.8132720169679734,-0.1237126067280769,-0.9334871172904968,-0.3365960419178009,28739.032665375,unknown,2,2020-03-06 13:31:58.985 +0100,605190718.9852278,0,0.4899998,98.77559
2020-03-06 13:32:01.566 +0100,28741.611945125,-0.0886688232421875,-0.957183837890625,-0.3516845703125,28741.601897125,0.4497865890640323,-0.3543262741823608,1.202210755855775,-0.1162658929824829,0.06534523516893387,0.1873967051506042,0.03928261995315552,-0.06331121921539307,0.008774220943450928,XArbitraryZVertical,0.5750956339954442,-0.01753925700286842,0.08387166337398511,0.8135864108522652,-0.1250078529119492,-0.9328379034996033,-0.337914764881134,28739.032665375,unknown,2,2020-03-06 13:31:58.985 +0100,605190721.5570056,0,0.5100002,98.77238
2020-03-06 13:32:01.576 +0100,28741.621994,-0.0908355712890625,-0.948944091796875,-0.3499755859375,28741.611945125,0.4535198758602231,-0.3571030220113028,1.200825269843279,-0.03516962006688118,0.06546556949615479,0.1876811534166336,0.03850533068180084,-0.03417885303497314,-0.008323252201080322,XArbitraryZVertical,0.5747130483656562,-0.01778924984745285,0.08477714722447406,0.8137574549899734,-0.1263973414897919,-0.9323378205299377,-0.3387769162654877,28739.032665375,unknown,2,2020-03-06 13:31:58.985 +0100,605190721.5570056,0,0.5100002,98.77238
2020-03-06 13:32:01.586 +0100,28741.632042,-0.092803955078125,-0.9604644775390625,-0.34423828125,28741.621994,0.4582673621924179,-0.360752620209472,1.200338086552182,0.0688670352101326,0.0835614800453186,0.1918700486421585,0.0393061637878418,-0.0201340913772583,-0.01249659061431885,XArbitraryZVertical,0.5747238595667366,-0.01797852100919349,0.08572549106871212,0.813646380342557,-0.1277932822704315,-0.9321615695953369,-0.3387385308742523,28739.032665375,unknown,2,2020-03-06 13:31:58.985 +0100,605190721.5570056,0,0.5100002,98.77238
2020-03-06 13:32:01.596 +0100,28741.642091,-0.090545654296875,-0.9947357177734375,-0.35321044921875,28741.632042,0.4642242821571589,-0.3652919555876641,1.200835362298986,0.1622282713651657,0.1071536466479301,0.2003045827150345,0.03731988370418549,-0.01912993192672729,-0.01058387756347656,XArbitraryZVertical,0.5751640192477804,-0.01804144786051431,0.08677568682076901,0.8132224439373799,-0.129163920879364,-0.932341456413269,-0.3377217054367065,28739.032665375,unknown,2,2020-03-06 13:31:58.985 +0100,605190721.5570056,0,0.5100002,98.77238
2020-03-06 13:32:01.606 +0100,28741.652139,-0.0832366943359375,-1.032424926757812,-0.3671875,28741.642091,0.4713431381230518,-0.3707318925072215,1.202143904774126,0.2419755756855011,0.1249257177114487,0.2127977311611176,0.03837737441062927,-0.04301077127456665,-0.008766412734985352,XArbitraryZVertical,0.5759661601269622,-0.01801500853596745,0.08792323999589549,0.8125318330732475,-0.1305571645498276,-0.932813823223114,-0.3358768820762634,28739.032665375,unknown,2,2020-03-06 13:31:58.985 +0100,605190721.5570056,0,0.5100002,98.77238
2020-03-06 13:32:01.616 +0100,28741.662188,-0.06622314453125,-1.073135375976562,-0.37933349609375,28741.652139,0.4797543706750678,-0.377300571105579,1.203988069649645,0.2840330600738525,0.1196429133415222,0.2417491376399994,0.0444328635931015,-0.08011329174041748,-0.02905339002609253,XArbitraryZVertical,0.5770358524755685,-0.01798738523856356,0.08918699210292594,0.8116352352808333,-0.1321265697479248,-0.9334768056869507,-0.3334121704101562,28739.032665375,unknown,2,2020-03-06 13:31:58.985 +0100,605190721.5570056,0,0.5100002,98.77238
2020-03-06 13:32:01.626 +0100,28741.672236,-0.0567626953125,-1.117141723632812,-0.3806304931640625,28741.662188,0.4893770148209197,-0.3851608798402471,1.205715529606255,0.264192521572113,0.09244032204151154,0.2931388020515442,0.05858936905860901,-0.1175658702850342,-0.04265981912612915,XArbitraryZVertical,0.5781321802742947,-0.0181387662650896,0.09057358089071833,0.8106975667731853,-0.1341371089220047,-0.9340949058532715,-0.3308683335781097,28739.032665375,unknown,2,2020-03-06 13:31:58.985 +0100,605190721.5570056,0,0.5100002,98.77238
2020-03-06 13:32:01.636 +0100,28741.682285,-0.0578155517578125,-1.1505126953125,-0.38043212890625,28741.672236,0.5002742320580998,-0.394606536839145,1.206782749904821,0.2084100544452667,0.04925742745399475,0.3652363717556,0.07884234189987183,-0.1612067818641663,-0.05381917953491211,XArbitraryZVertical,0.5790674630615215,-0.01865054268358433,0.09210055271243026,0.8098459334044094,-0.1368729919195175,-0.9344754219055176,-0.3286660611629486,28739.032665375,unknown,2,2020-03-06 13:31:58.985 +0100,605190721.5570056,0,0.5100002,98.77238
2020-03-06 13:32:01.646 +0100,28741.692333,-0.0639801025390625,-1.150466918945312,-0.381072998046875,28741.682285,0.5125956988767043,-0.4058165325787984,1.206708507278483,0.1108403503894806,0.003596462309360504,0.463707834482193,0.08410176634788513,-0.2028746008872986,-0.05019849538803101,XArbitraryZVertical,0.5796785443422807,-0.01963009554904926,0.09385145080580211,0.8091843399412082,-0.1405760794878006,-0.9344489574432373,-0.3271749019622803,28739.032665375,unknown,2,2020-03-06 13:31:58.985 +0100,605190721.5570056,0,0.5100002,98.77238
2020-03-06 13:32:01.656 +0100,28741.702382,-0.0738525390625,-1.131759643554688,-0.3862457275390625,28741.692333,0.5265783867354817,-0.4191205022969424,1.205063056246656,-0.01113531365990639,-0.05206410959362984,0.5752843618392944,0.08413884043693542,-0.2210246324539185,-0.05530166625976562,XArbitraryZVertical,0.5798359570718891,-0.02122094211415627,0.09590227579100641,0.8087908584296878,-0.145541787147522,-0.9338617920875549,-0.3266798555850983,28739.032665375,unknown,2,2020-03-06 13:31:58.985 +0100,605190721.5570056,0,0.5100002,98.77238
2020-03-06 13:32:01.666 +0100,28741.71243,-0.090240478515625,-1.121368408203125,-0.377105712890625,28741.702382,0.5418345030852314,-0.4340726186629918,1.202016351427613,-0.08320976793766022,-0.08896061033010483,0.6673710942268372,0.08319896459579468,-0.2083245515823364,-0.05745232105255127,XArbitraryZVertical,0.5795959912898075,-0.02334482309777316,0.09821605066433965,0.8086266279512294,-0.1516057550907135,-0.9327678084373474,-0.3270470201969147,28739.032665375,unknown,2,2020-03-06 13:31:58.985 +0100,605190721.5570056,0,0.5100002,98.77238
2020-03-06 13:32:01.676 +0100,28741.722479,-0.0988311767578125,-1.109634399414062,-0.364654541015625,28741.71243,0.5586450351620064,-0.4508232110417786,1.198054721914074,-0.1053132712841034,-0.1227564960718155,0.7678543925285339,0.07729452848434448,-0.1946688890457153,-0.05437934398651123,XArbitraryZVertical,0.5791680391876505,-0.02591665937707454,0.1008016565190338,0.808536778076087,-0.1586713343858719,-0.9313324093818665,-0.3277854323387146,28739.032665375,unknown,2,2020-03-06 13:31:58.985 +0100,605190721.5570056,0,0.5100002,98.77238
2020-03-06 13:32:01.686 +0100,28741.732527,-0.109893798828125,-1.087554931640625,-0.3566131591796875,28741.722479,0.5775440405666726,-0.4698188690969231,1.193388629998421,-0.1139126196503639,-0.1595632433891296,0.8762586712837219,0.07160252332687378,-0.1875432729721069,-0.0460892915725708,XArbitraryZVertical,0.5786802143115262,-0.02893868208258982,0.1037235138282272,0.8084139330632455,-0.1668343544006348,-0.9296230673789978,-0.3285835385322571,28739.032665375,unknown,2,2020-03-06 13:31:58.985 +0100,605190721.5570056,0,0.5100002,98.77238
2020-03-06 13:32:01.696 +0100,28741.742575,-0.1262969970703125,-1.105484008789062,-0.3723907470703125,28741.732527,0.5982454913861305,-0.4908227455405602,1.188222625599702,-0.08403691649436951,-0.1942688673734665,0.947934091091156,0.07045885920524597,-0.1685091853141785,-0.02808499336242676,XArbitraryZVertical,0.5782152049568632,-0.03237192618701368,0.1069099550948733,0.8082014073704269,-0.1759599894285202,-0.9277068972587585,-0.3292384743690491,28739.032665375,unknown,2,2020-03-06 13:31:58.985 +0100,605190721.5570056,0,0.5100002,98.77238
2020-03-06 13:32:01.706 +0100,28741.752624,-0.148712158203125,-1.132339477539062,-0.3817138671875,28741.742575,0.6206987075753461,-0.513744748454327,1.183131216526382,0.01011062413454056,-0.2305389940738678,1.013713836669922,0.06803992390632629,-0.1662865877151489,-0.03213906288146973,XArbitraryZVertical,0.5779993284655753,-0.03609284232859425,0.1102690930092297,0.8077466874958313,-0.1857786774635315,-0.925794243812561,-0.3292281627655029,28739.032665375,unknown,2,2020-03-06 13:31:58.985 +0100,605190721.5570056,0,0.5100002,98.77238
2020-03-06 13:32:01.717 +0100,28741.762672,-0.1774749755859375,-1.138229370117188,-0.380035400390625,28741.752624,0.6454756507338326,-0.539293128445924,1.178154690060738,0.07174979150295258,-0.2958228290081024,1.109894633293152,0.05905398726463318,-0.197613537311554,-0.04982763528823853,XArbitraryZVertical,0.5781185976102052,-0.04020901434154948,0.1138145504150459,0.8069747797942846,-0.1964919418096542,-0.9239014983177185,-0.3283242583274841,28739.032665375,unknown,2,2020-03-06 13:31:58.985 +0100,605190721.5570056,0,0.5100002,98.77238
2020-03-06 13:32:01.726 +0100,28741.772721,-0.2171173095703125,-1.12158203125,-0.35546875,28741.762672,0.6724323220067235,-0.5674822332346946,1.172778818720564,0.1063144281506538,-0.3593589067459106,1.208345055580139,0.04678751528263092,-0.2167585492134094,-0.05595117807388306,XArbitraryZVertical,0.5784182467275595,-0.04486357565857698,0.1175764258093368,0.8059747468470181,-0.2083345204591751,-0.9218311905860901,-0.3268391788005829,28739.032665375,unknown,2,2020-03-06 13:31:58.985 +0100,605190721.5570056,0,0.5100002,98.77238
2020-03-06 13:32:01.737 +0100,28741.782769,-0.256561279296875,-1.106521606445312,-0.3144378662109375,28741.772721,0.7008613562315773,-0.5974630898415043,1.166705903887771,0.09758493304252625,-0.3955511152744293,1.299963355064392,0.02397666871547699,-0.2120494246482849,-0.04938912391662598,XArbitraryZVertical,0.5787632125175386,-0.04998254187487032,0.1215769918967217,0.8048316145378953,-0.221183642745018,-0.9194604158401489,-0.325069785118103,28739.032665375,unknown,2,2020-03-06 13:31:58.985 +0100,605190721.5570056,0,0.5100002,98.77238
2020-03-06 13:32:01.747 +0100,28741.792818,-0.2910919189453125,-1.079574584960938,-0.309112548828125,28741.782769,0.7297886771795737,-0.6279904179208994,1.159615480122786,0.0537990964949131,-0.3913441300392151,1.379287481307983,-0.002999037504196167,-0.1976026296615601,-0.005934476852416992,XArbitraryZVertical,0.5789738356767532,-0.05542515080262295,0.1258610675348714,0.8036643169033399,-0.2348269671201706,-0.9166494607925415,-0.3234347105026245,28739.032665375,unknown,2,2020-03-06 13:31:58.985 +0100,605190721.5570056,0,0.5100002,98.77238
2020-03-06 13:32:01.757 +0100,28741.802866,-0.3193359375,-1.036651611328125,-0.301666259765625,28741.792818,0.7583890580229755,-0.6581547118823947,1.151274795939986,-0.001470188610255718,-0.404813677072525,1.451238870620728,-0.02640315890312195,-0.1813756823539734,0.01350325345993042,XArbitraryZVertical,0.5789138299725195,-0.0611346485325345,0.1304284648210179,0.8025644622597166,-0.2491426765918732,-0.9132839441299438,-0.3222426772117615,28739.032665375,unknown,2,2020-03-06 13:31:58.985 +0100,605190721.5570056,0,0.5100002,98.77238
2020-03-06 13:32:01.767 +0100,28741.812915,-0.3504486083984375,-0.9818267822265625,-0.2917633056640625,28741.802866,0.7864312399771863,-0.6878618790183751,1.142035286972617,-0.0006288960576057434,-0.418034166097641,1.487297058105469,-0.04058724641799927,-0.1496403217315674,0.01379424333572388,XArbitraryZVertical,0.5787031948328498,-0.06707867510245269,0.135154655347174,0.8014587935030378,-0.2639504373073578,-0.9094815254211426,-0.321206122636795,28739.032665375,unknown,2,2020-03-06 13:31:58.985 +0100,605190721.5570056,0,0.5100002,98.77238
2020-03-06 13:32:01.777 +0100,28741.822963,-0.3778839111328125,-0.9173431396484375,-0.269287109375,28741.812915,0.8137348479535892,-0.7167986779150385,1.13227603228308,-0.01405841857194901,-0.4122194051742554,1.511960029602051,-0.05578354001045227,-0.1067743897438049,0.02397584915161133,XArbitraryZVertical,0.5784462687946622,-0.07310398696094347,0.1399809847546077,0.8002880505758431,-0.2789514362812042,-0.9053809642791748,-0.3201114535331726,28739.032665375,unknown,2,2020-03-06 13:31:58.985 +0100,605190721.5570056,0,0.5100002,98.77238
2020-03-06 13:32:01.787 +0100,28741.833012,-0.398040771484375,-0.87005615234375,-0.2777252197265625,28741.822963,0.8399885900364696,-0.7445601590381328,1.121939107809166,-0.01382299512624741,-0.3877921104431152,1.525451302528381,-0.07183742523193359,-0.04770433902740479,0.04212462902069092,XArbitraryZVertical,0.5780821217933321,-0.07915670649753198,0.1449175913238528,0.7990957930418787,-0.2940561175346375,-0.9009435772895813,-0.3191105425357819,28739.032665375,unknown,2,2020-03-06 13:31:58.985 +0100,605190721.5570056,0,0.5100002,98.77238
2020-03-06 13:32:01.797 +0100,28741.84306,-0.4095458984375,-0.843719482421875,-0.3241729736328125,28741.833012,0.8652260635278167,-0.7709010051536657,1.11150652193482,0.01914838515222073,-0.3378259241580963,1.499792098999023,-0.07967680692672729,0.00497061014175415,0.04836398363113403,XArbitraryZVertical,0.5777397199491404,-0.08501091857254556,0.1499337353347396,0.797815641380491,-0.3088914155960083,-0.8963675498962402,-0.3179799318313599,28739.032665375,unknown,2,2020-03-06 13:31:58.985 +0100,605190721.5570056,0,0.5100002,98.77238
2020-03-06 13:32:01.807 +0100,28741.853109,-0.4088287353515625,-0.8227081298828125,-0.3652801513671875,28741.84306,0.8895439406240099,-0.7958642167598483,1.101311340446943,0.07930733263492584,-0.3086960017681122,1.472568511962891,-0.08314591646194458,0.0375443696975708,0.02001601457595825,XArbitraryZVertical,0.5775150951533401,-0.09056549187893313,0.154966790499467,0.7964040312523553,-0.3232447803020477,-0.8918014168739319,-0.3165484070777893,28739.032665375,unknown,2,2020-03-06 13:31:58.985 +0100,605190721.5570056,0,0.5100002,98.77238
2020-03-06 13:32:01.817 +0100,28741.863157,-0.418304443359375,-0.801300048828125,-0.374847412109375,28741.853109,0.9139332814045913,-0.8206714633724495,1.091486941416674,0.1730746924877167,-0.3131122887134552,1.475471615791321,-0.0713801383972168,0.05342710018157959,-0.03460109233856201,XArbitraryZVertical,0.5775751100648054,-0.09597647728645528,0.1600145939282618,0.7947268508986117,-0.3373910486698151,-0.8873136043548584,-0.314391016960144,28739.032665375,unknown,2,2020-03-06 13:31:58.985 +0100,605190721.5570056,0,0.5100002,98.77238
2020-03-06 13:32:01.827 +0100,28741.873206,-0.435516357421875,-0.77874755859375,-0.3607330322265625,28741.863157,0.9385768514476626,-0.8456908225305405,1.081919973158522,0.2207330465316772,-0.3212855458259583,1.466386556625366,-0.06100654602050781,0.06894832849502563,-0.06225854158401489,XArbitraryZVertical,0.5779212881335734,-0.1013555766667857,0.165060565687261,0.7927729562948063,-0.3514879643917084,-0.8828611373901367,-0.3114680647850037,28739.032665375,unknown,2,2020-03-06 13:31:58.985 +0100,605190721.5570056,0,0.5100002,98.77238
2020-03-06 13:32:01.837 +0100,28741.883254,-0.4420166015625,-0.770172119140625,-0.3345184326171875,28741.873206,0.9615479614042922,-0.8690766756891145,1.072081013972317,0.1161302998661995,-0.3080672025680542,1.428579926490784,-0.06111893057823181,0.08920270204544067,-0.06207108497619629,XArbitraryZVertical,0.5781387457460903,-0.1066649708959919,0.1700071319601884,0.790870156745667,-0.3652917146682739,-0.8781977295875549,-0.3087563514709473,28739.032665375,unknown,2,2020-03-06 13:31:58.985 +0100,605190721.5570056,0,0.5100002,98.77238
2020-03-06 13:32:01.847 +0100,28741.893302,-0.4318695068359375,-0.739501953125,-0.2978973388671875,28741.883254,0.9804771955633546,-0.8887337392485181,1.061312385195951,-0.09412279725074768,-0.3084608316421509,1.38386869430542,-0.06194609403610229,0.1002212166786194,-0.03977644443511963,XArbitraryZVertical,0.5776996826130412,-0.1119495922846282,0.174706460898591,0.7894352212550287,-0.3786096274852753,-0.8729963302612305,-0.3074607253074646,28739.032665375,unknown,2,2020-03-06 13:31:58.985 +0100,605190721.5570056,0,0.5100002,98.77238
2020-03-06 13:32:01.857 +0100,28741.903351,-0.4262847900390625,-0.662841796875,-0.2425689697265625,28741.893302,0.9943848388370289,-0.9039639798012322,1.049168834981641,-0.3509251177310944,-0.3146933913230896,1.353803396224976,-0.04642713069915771,0.106899082660675,-0.009533226490020752,XArbitraryZVertical,0.5763085484547659,-0.1173531188715636,0.179106959037532,0.7886807208707149,-0.3915500342845917,-0.8670093417167664,-0.3081934154033661,28739.032665375,unknown,2,2020-03-06 13:31:58.985 +0100,605190721.5570056,0,0.5100002,98.77238
2020-03-06 13:32:01.867 +0100,28741.913399,-0.4420013427734375,-0.5451507568359375,-0.179656982421875,28741.903351,1.003419809454316,-0.914948802533298,1.035799753983436,-0.5614206194877625,-0.3154792785644531,1.298112750053406,-0.02234846353530884,0.1521162986755371,0.03658455610275269,XArbitraryZVertical,0.5739745723110454,-0.1228642145933344,0.1831781079866758,0.7886084933022404,-0.4040626883506775,-0.8602703809738159,-0.3109151422977448,28739.032665375,unknown,2,2020-03-06 13:31:58.985 +0100,605190721.5570056,0,0.5100002,98.77238
2020-03-06 13:32:01.877 +0100,28741.923448,-0.4654083251953125,-0.45489501953125,-0.146392822265625,28741.913399,1.008316064567289,-0.9221057377137623,1.022028378915456,-0.6911376118659973,-0.2641637325286865,1.175490856170654,-0.01572149991989136,0.2467595934867859,0.106837272644043,XArbitraryZVertical,0.5709600032683552,-0.1281914645309064,0.1868528331759209,0.7890865597193643,-0.4156793057918549,-0.8531678318977356,-0.3151432573795319,28739.032665375,unknown,2,2020-03-06 13:31:58.985 +0100,605190721.5570056,0,0.5100002,98.77238
2020-03-06 13:32:01.887 +0100,28741.933496,-0.4743804931640625,-0.4804534912109375,-0.157623291015625,28741.923448,1.010008613084601,-0.9255823327362518,1.009289951892281,-0.6813204288482666,-0.1352268159389496,0.9451858401298523,-0.02712804079055786,0.3558294773101807,0.1625746488571167,XArbitraryZVertical,0.5677040433053595,-0.1326989320563825,0.1900429271206968,0.7899282927453357,-0.4254215657711029,-0.8464539647102356,-0.3202062249183655,28739.032665375,unknown,2,2020-03-06 13:31:58.985 +0100,605190721.5570056,0,0.5100002,98.77238
2020-03-06 13:32:01.897 +0100,28741.943545,-0.4524078369140625,-0.6057586669921875,-0.188507080078125,28741.933496,1.010394169036524,-0.9265706084613884,0.9990686570127891,-0.4834636747837067,0.002441050484776497,0.7182483077049255,-0.04056167602539062,0.3910686373710632,0.1770532131195068,XArbitraryZVertical,0.5648484770801044,-0.1358812482417011,0.1927314533515174,0.790782511004498,-0.4326331615447998,-0.8409674167633057,-0.3249649703502655,28739.032665375,unknown,2,2020-03-06 13:31:58.985 +0100,605190721.5570056,0,0.5100002,98.77238
2020-03-06 13:32:01.907 +0100,28741.953593,-0.413604736328125,-0.7149505615234375,-0.217926025390625,28741.943545,1.012718122948867,-0.927924192143054,0.9917601530695807,-0.1884897947311401,0.1050356030464172,0.6181579232215881,-0.02766156196594238,0.2979956269264221,0.1569193005561829,XArbitraryZVertical,0.5630044222356992,-0.1378351908841553,0.1952809745012373,0.7911337875798703,-0.4379802644252777,-0.8369904756546021,-0.3280549645423889,28739.032665375,unknown,2,2020-03-06 13:31:58.985 +0100,605190721.5570056,0,0.5100002,98.77238
2020-03-06 13:32:01.918 +0100,28741.963642,-0.3782958984375,-0.7682952880859375,-0.246673583984375,28741.953593,1.018152030280778,-0.9311745479582224,0.9862171604404871,-0.01828285679221153,0.1430451422929764,0.6276320815086365,0.009756475687026978,0.1684999465942383,0.1258943676948547,XArbitraryZVertical,0.562081316216923,-0.1391677373659373,0.1980430267612779,0.7908702623212223,-0.4427598118782043,-0.8339443802833557,-0.3293938636779785,28739.032665375,unknown,2,2020-03-06 13:31:58.985 +0100,605190721.5570056,0,0.5100002,98.77238
2020-03-06 13:32:01.927 +0100,28741.97369,-0.35107421875,-0.7576751708984375,-0.255401611328125,28741.963642,1.024952765093332,-0.9353853717730111,0.9810577841362822,-0.004162777215242386,0.1429601758718491,0.6361757516860962,0.05303347110748291,0.08194708824157715,0.09889715909957886,XArbitraryZVertical,0.5614729066508753,-0.1403929887835803,0.2009729697542201,0.7903466904946784,-0.4476000368595123,-0.8310860991477966,-0.3300759792327881,28739.032665375,unknown,2,2020-03-06 13:31:58.985 +0100,605190721.5570056,0,0.5100002,98.77238
2020-03-06 13:32:01.938 +0100,28741.983739,-0.336669921875,-0.6894989013671875,-0.252471923828125,28741.97369,1.031034174453071,-0.9391288608266904,0.9756741829252719,-0.09336697310209274,0.1125799268484116,0.6316192746162415,0.08764016628265381,0.05741095542907715,0.07307714223861694,XArbitraryZVertical,0.560715530749706,-0.1417055531149153,0.2038146730087863,0.7899222719163621,-0.4524368643760681,-0.8280800580978394,-0.3310352563858032,28739.032665375,unknown,2,2020-03-06 13:31:58.985 +0100,605190721.5570056,0,0.5100002,98.77238
2020-03-06 13:32:01.947 +0100,28741.993787,-0.3343963623046875,-0.6656036376953125,-0.2644195556640625,28741.983739,1.035156919576732,-0.9414562354376899,0.9696430299672734,-0.2394112646579742,0.1094504371285439,0.6013897657394409,0.1153266429901123,0.09809756278991699,0.08070939779281616,XArbitraryZVertical,0.5594966684129387,-0.1431991014445522,0.2064618011579445,0.7898296848825676,-0.457235187292099,-0.8246838450431824,-0.3329149782657623,28739.032665375,unknown,2,2020-03-06 13:31:58.985 +0100,605190721.5570056,0,0.5100002,98.77238
2020-03-06 13:32:01.958 +0100,28742.003836,-0.329742431640625,-0.69317626953125,-0.2789459228515625,28741.993787,1.037022474841719,-0.941810452848197,0.9635179188113143,-0.2918246686458588,0.1261974424123764,0.5028900504112244,0.1250288486480713,0.1539896726608276,0.07785189151763916,XArbitraryZVertical,0.5578876877625173,-0.1445754603106961,0.2087964626675247,0.7901032775742763,-0.4614290297031403,-0.8212040662765503,-0.3357185423374176,28739.032665375,unknown,2,2020-03-06 13:31:58.985 +0100,605190721.5570056,0,0.5100002,98.77238
2020-03-06 13:32:01.968 +0100,28742.013884,-0.32196044921875,-0.698486328125,-0.194976806640625,28742.003836,1.037889383755628,-0.9412569652153067,0.9580654234136028,-0.2631906270980835,0.1245018020272255,0.4469590783119202,0.1330177783966064,0.139833927154541,0.06702119112014771,XArbitraryZVertical,0.5563045387248549,-0.1456798465395292,0.2108022472313417,0.7904841094579695,-0.4648557007312775,-0.8180805444717407,-0.3386052846908569,28739.032665375,unknown,2,2020-03-06 13:31:58.985 +0100,605190721.5570056,0,0.5100002,98.77238
2020-03-06 13:32:01.978 +0100,28742.023933,-0.3283538818359375,-0.73907470703125,-0.2614898681640625,28742.013884,1.038866840936582,-0.9410257602122591,0.9527846238926921,-0.2944301962852478,0.08786652237176895,0.4748915433883667,0.1412917673587799,0.1150265336036682,0.06344246864318848,XArbitraryZVertical,0.5548101392280155,-0.1468317245916113,0.2127127238079614,0.7908093307754852,-0.4682621359825134,-0.8150321245193481,-0.3412522971630096,28739.032665375,unknown,2,2020-03-06 13:31:58.985 +0100,605190721.5570056,0,0.5100002,98.77238
2020-03-06 13:32:01.988 +0100,28742.033981,-0.307891845703125,-0.789154052734375,-0.3217926025390625,28742.023933,1.038396899638876,-0.9392062011524427,0.9471340506548603,-0.3501200973987579,0.1544460952281952,0.3698354363441467,0.1481943428516388,0.1160578727722168,0.1392580270767212,XArbitraryZVertical,0.5529268452549966,-0.1478619151073226,0.2145904264979753,0.7914289228358233,-0.4713500142097473,-0.8117451071739197,-0.3448175191879272,28739.032665375,unknown,2,2020-03-06 13:31:58.985 +0100,605190721.5570056,0,0.5100002,98.77238
2020-03-06 13:32:02.006 +0100,28742.044029,-0.2900543212890625,-0.641876220703125,-0.3883056640625,28742.033981,1.037779548969465,-0.9377798052410208,0.9431480613048893,-0.1870874613523483,0.02830608561635017,0.2642177045345306,0.1490404009819031,0.0115814208984375,0.07114714384078979,XArbitraryZVertical,0.551556847872175,-0.1486090504797281,0.2158380321550298,0.7919054563785479,-0.4734625220298767,-0.8094108104705811,-0.3474007844924927,28739.032665375,unknown,2,2020-03-06 13:31:58.985 +0100,605190721.5570056,0,0.5100002,98.77238
2020-03-06 13:32:02.021 +0100,28742.054078,-0.3251800537109375,-0.584991455078125,-0.4508819580078125,28742.044029,1.038779547371641,-0.9386766862633962,0.9400777387310925,-0.03115351498126984,-0.01462007779628038,0.2750408053398132,0.1821162402629852,0.09592568874359131,-0.0232851505279541,XArbitraryZVertical,0.5508250457702895,-0.1495673817040193,0.2168320210065422,0.7919628467697789,-0.4757766425609589,-0.8076039552688599,-0.3484427332878113,28739.032665375,unknown,2,2020-03-06 13:31:58.985 +0100,605190721.5570056,0,0.5100002,98.77238
2020-03-06 13:32:02.022 +0100,28742.064126,-0.3769378662109375,-0.569488525390625,-0.4715576171875,28742.054078,1.042852878461339,-0.9421334638179701,0.9394955661971001,0.3288089036941528,-0.02949442341923714,0.08270104974508286,0.1745886206626892,0.197556734085083,-0.05241107940673828,XArbitraryZVertical,0.5513344887377645,-0.1499801463669963,0.2176522997510538,0.7913050553064118,-0.4773585200309753,-0.8072605133056641,-0.3470724821090698,28739.032665375,unknown,2,2020-03-06 13:31:58.985 +0100,605190721.5570056,0,0.5100002,98.77238
2020-03-06 13:32:02.028 +0100,28742.074175,-0.4190826416015625,-0.7180938720703125,-0.4586639404296875,28742.064126,1.048485470539083,-0.9471291723979476,0.9418119382484469,0.4550169110298157,-0.05233289301395416,-0.05108737573027611,0.1295245289802551,0.2489094734191895,-0.1339418888092041,XArbitraryZVertical,0.5529778114691314,-0.1497342376705336,0.2178596535576101,0.7901470129643711,-0.4775672256946564,-0.8086254596710205,-0.3435904085636139,28739.032665375,unknown,2,2020-03-06 13:31:58.985 +0100,605190721.5570056,0,0.5100002,98.77238
2020-03-06 13:32:02.038 +0100,28742.084223,-0.413543701171875,-0.88604736328125,-0.380157470703125,28742.074175,1.054568860723298,-0.9524844438211602,0.9451290078821809,0.4981852769851685,-0.03650838881731033,-0.05909610167145729,0.07289499044418335,0.1831379532814026,-0.1208337545394897,XArbitraryZVertical,0.5549792699802842,-0.1492057056198376,0.2178570151284779,0.788843439012973,-0.477212131023407,-0.8105725049972534,-0.3394713401794434,28739.032665375,unknown,2,2020-03-06 13:31:58.985 +0100,605190721.5570056,0,0.5100002,98.77238
2020-03-06 13:32:02.048 +0100,28742.094272,-0.413909912109375,-0.916046142578125,-0.294403076171875,28742.084223,1.060750591285791,-0.9580111761198383,0.9478920962124511,0.3685870766639709,-0.07149114459753036,0.04414453357458115,0.05689281225204468,0.0002589225769042969,-0.1035254001617432,XArbitraryZVertical,0.5568389898287028,-0.148864662465937,0.2179868779562972,0.7875603797883595,-0.4772469997406006,-0.8121875524520874,-0.335539311170578,28739.032665375,unknown,2,2020-03-06 13:31:58.985 +0100,605190721.5570056,0,0.5100002,98.77238
2020-03-06 13:32:02.059 +0100,28742.10432,-0.4320831298828125,-0.9170989990234375,-0.285003662109375,28742.094272,1.063908583553755,-0.9615807559279743,0.947616231003528,-0.1332286596298218,-0.1230084374547005,0.2019041627645493,0.06788432598114014,-0.1067287921905518,0.007842659950256348,XArbitraryZVertical,0.557384708308666,-0.1494703082692816,0.2183127933536644,0.7869691659078687,-0.478625476360321,-0.8120266199111938,-0.3339618146419525,28739.032665375,unknown,2,2020-03-06 13:31:58.985 +0100,605190721.5570056,0,0.5100002,98.77238
2020-03-06 13:32:02.069 +0100,28742.114369,-0.44744873046875,-0.8487548828125,-0.3713836669921875,28742.10432,1.060560097114582,-0.9599394791852621,0.9436319810997691,-0.6041242480278015,-0.08766962587833405,0.2041225880384445,0.05830889940261841,-0.1010190844535828,0.06335228681564331,XArbitraryZVertical,0.5558102080249439,-0.150914131453843,0.218565480501599,0.7877366185114337,-0.4807230234146118,-0.8096948862075806,-0.3365998864173889,28739.032665375,unknown,2,2020-03-06 13:31:58.985 +0100,605190721.5570056,0,0.5100002,98.77238
2020-03-06 13:32:02.079 +0100,28742.124417,-0.4617767333984375,-0.7301177978515625,-0.434661865234375,28742.114369,1.052529667544724,-0.9544033236123811,0.9380130566664289,-0.7861599922180176,-0.1075938865542412,0.1773847192525864,0.04010802507400513,-0.09671527147293091,0.007399916648864746,XArbitraryZVertical,0.5529716268927904,-0.1525842455290119,0.2184995840800402,0.7894291294577979,-0.4825570285320282,-0.8063846230506897,-0.3418808579444885,28739.032665375,unknown,2,2020-03-06 13:31:58.985 +0100,605190721.5570056,0,0.5100002,98.77238
2020-03-06 13:32:02.088 +0100,28742.134466,-0.4843902587890625,-0.711090087890625,-0.457855224609375,28742.124417,1.043977263544096,-0.9488074669976369,0.9321555896510175,-0.6618923544883728,-0.1469849646091461,0.1844207942485809,0.03255739808082581,0.02349460124969482,-0.04776692390441895,XArbitraryZVertical,0.5499946907665234,-0.1544177782364506,0.2182870356261687,0.7912090561701046,-0.4844669103622437,-0.8029067516326904,-0.3473219871520996,28739.032665375,unknown,2,2020-03-06 13:31:58.985 +0100,605190721.5570056,0,0.5100002,98.77238
2020-03-06 13:32:02.098 +0100,28742.144514,-0.5189056396484375,-0.7260284423828125,-0.4193878173828125,28742.134466,1.03931645771394,-0.9464540947148735,0.927880142807215,-0.2857479155063629,-0.1235384494066238,0.1772793531417847,0.01378268003463745,0.08913028240203857,-0.1115342974662781,XArbitraryZVertical,0.5481190459595404,-0.1559911131760242,0.218268771665539,0.7922063662425518,-0.4864288568496704,-0.8003508448600769,-0.3504645824432373,28739.032665375,unknown,2,2020-03-06 13:31:58.985 +0100,605190721.5570056,0,0.5100002,98.77238
2020-03-06 13:32:02.109 +0100,28742.154563,-0.5484619140625,-0.8028564453125,-0.3825531005859375,28742.144514,1.03869793018735,-0.947000627594946,0.925536138366116,-0.07126463949680328,-0.08636205643415451,0.1592345684766769,-0.01213818788528442,0.08511340618133545,-0.09401202201843262,XArbitraryZVertical,0.5474388344710482,-0.157047596151453,0.2185204190194224,0.7923985963575062,-0.4881417155265808,-0.7989433407783508,-0.3512935638427734,28739.032665375,unknown,2,2020-03-06 13:31:58.985 +0100,605190721.5570056,0,0.5100002,98.77238
2020-03-06 13:32:02.118 +0100,28742.164611,-0.5621337890625,-0.833709716796875,-0.38458251953125,28742.154563,1.039796553445821,-0.9486766323442447,0.9240540852048724,-0.01023345347493887,-0.08166570961475372,0.1616210043430328,-0.04528695344924927,0.0387498140335083,-0.03907179832458496,XArbitraryZVertical,0.5472712427838765,-0.1578349117600409,0.2189057787181005,0.7922516318216438,-0.4896916151046753,-0.798051118850708,-0.3511646687984467,28739.032665375,unknown,2,2020-03-06 13:31:58.985 +0100,605190721.5570056,0,0.5100002,98.77238
2020-03-06 13:32:02.129 +0100,28742.17466,-0.5800628662109375,-0.7786102294921875,-0.385589599609375,28742.164611,1.040806801823287,-0.9505370294110158,0.9223225007602147,-0.107772521674633,-0.1301751881837845,0.1891096085309982,-0.06453746557235718,-0.03506392240524292,-0.03416067361831665,XArbitraryZVertical,0.5470444309113996,-0.1587909923367591,0.219274885354683,0.7921150414066449,-0.49146768450737,-0.7970064878463745,-0.3510556221008301,28739.032665375,unknown,2,2020-03-06 13:31:58.985 +0100,605190721.5570056,0,0.5100002,98.77238
2020-03-06 13:32:02.139 +0100,28742.184708,-0.59930419921875,-0.702178955078125,-0.3870697021484375,28742.17466,1.040356600954924,-0.9516252710544165,0.9199302181142623,-0.1990716159343719,-0.1539281010627747,0.1515317559242249,-0.07627618312835693,-0.0187346339225769,-0.03293395042419434,XArbitraryZVertical,0.5464222772487122,-0.1600299199022764,0.2194597343197079,0.7922440448398759,-0.4934008717536926,-0.7955593466758728,-0.3516262471675873,28739.032665375,unknown,2,2020-03-06 13:31:58.985 +0100,605190721.5570056,0,0.5100002,98.77238
2020-03-06 13:32:02.149 +0100,28742.194757,-0.6181640625,-0.696502685546875,-0.3942413330078125,28742.184708,1.038420319714831,-0.9516482638004847,0.9179871865246615,-0.2085876315832138,-0.1548783183097839,0.0161462239921093,-0.09582322835922241,0.0591273307800293,-0.03528392314910889,XArbitraryZVertical,0.5456955700311057,-0.1611233400363399,0.2192226448184117,0.7925887832185923,-0.4946667551994324,-0.7943806052207947,-0.3525112271308899,28739.032665375,unknown,2,2020-03-06 13:31:58.985 +0100,605190721.5570056,0,0.5100002,98.77238
2020-03-06 13:32:02.159 +0100,28742.204805,-0.6251068115234375,-0.7313385009765625,-0.4042816162109375,28742.194757,1.03535830246089,-0.9507160585855056,0.9173384478038937,-0.1589479446411133,-0.1467991322278976,-0.1137159019708633,-0.1143026351928711,0.1051504015922546,-0.035530686378479,XArbitraryZVertical,0.5451543998410764,-0.1617741222240884,0.2184420196178687,0.793044057079264,-0.4947572648525238,-0.7939863801002502,-0.3532716333866119,28739.032665375,unknown,2,2020-03-06 13:31:58.985 +0100,605190721.5570056,0,0.5100002,98.77238
2020-03-06 13:32:02.169 +0100,28742.214854,-0.6136627197265625,-0.73699951171875,-0.4278564453125,28742.204805,1.032443017842509,-0.9498833480274572,0.9176786041912602,-0.09699935466051102,-0.148737907409668,-0.1337308883666992,-0.1295414566993713,0.07789129018783569,-0.04505681991577148,XArbitraryZVertical,0.5449284559788313,-0.1621413502624849,0.2174189549079145,0.7934053778833731,-0.4942431747913361,-0.7941931486129761,-0.3535263240337372,28739.032665375,unknown,2,2020-03-06 13:31:58.985 +0100,605190721.5570056,0,0.5100002,98.77238
2020-03-06 13:32:02.179 +0100,28742.224902,-0.5987396240234375,-0.740875244140625,-0.43060302734375,28742.214854,1.029711699401124,-0.94924221287789,0.9180447354795076,-0.095472052693367,-0.1797142624855042,-0.1318500638008118,-0.1261593699455261,0.05670565366744995,-0.06199920177459717,XArbitraryZVertical,0.5447459306423572,-0.1625268168630755,0.216409048087913,0.7937279198670673,-0.4937800467014313,-0.7944155335426331,-0.3536738157272339,28739.032665375,unknown,2,2020-03-06 13:31:58.985 +0100,605190721.5570056,0,0.5100002,98.77238
2020-03-06 13:32:02.189 +0100,28742.23495,-0.5812225341796875,-0.7475433349609375,-0.447540283203125,28742.224902,1.02653067827118,-0.9486030434708882,0.9184069684496041,-0.1342743039131165,-0.2151798456907272,-0.1740361452102661,-0.1132984161376953,0.05529314279556274,-0.07707983255386353,XArbitraryZVertical,0.5445257970227049,-0.1630363859675922,0.2152206723587212,0.7940974754959694,-0.4933199882507324,-0.794635534286499,-0.3538215756416321,28739.032665375,unknown,2,2020-03-06 13:31:58.985 +0100,605190721.5570056,0,0.5100002,98.77238
2020-03-06 13:32:02.199 +0100,28742.244999,-0.56549072265625,-0.732635498046875,-0.4298858642578125,28742.23495,1.022521098005311,-0.9478839533402222,0.9189412308098828,-0.1757306307554245,-0.2834275364875793,-0.2137190997600555,-0.09630453586578369,0.05029195547103882,-0.08477014303207397,XArbitraryZVertical,0.5442803612811956,-0.1636906602832368,0.2136770280975472,0.7945478834707426,-0.4927205443382263,-0.7949597239494324,-0.3539285063743591,28739.032665375,unknown,2,2020-03-06 13:31:58.985 +0100,605190721.5570056,0,0.5100002,98.77238
2020-03-06 13:32:02.209 +0100,28742.255047,-0.5670318603515625,-0.736236572265625,-0.4190826416015625,28742.244999,1.01784431299562,-0.9474157587499734,0.9194831862115929,-0.2156673967838287,-0.3548718988895416,-0.2212851494550705,-0.0794404149055481,0.0534435510635376,-0.08944505453109741,XArbitraryZVertical,0.5440085392319589,-0.1646236197121688,0.2117969096950843,0.7950444736086524,-0.4922048449516296,-0.7952884435653687,-0.3539075553417206,28739.032665375,unknown,2,2020-03-06 13:31:58.985 +0100,605190721.5570056,0,0.5100002,98.77238
2020-03-06 13:32:02.219 +0100,28742.265096,-0.558929443359375,-0.7543792724609375,-0.419586181640625,28742.255047,1.012652331298435,-0.9470147127125904,0.9199490976859872,-0.2201883047819138,-0.3770140409469604,-0.2465637177228928,-0.07268095016479492,0.0670773983001709,-0.06427198648452759,XArbitraryZVertical,0.5436768723723306,-0.1657444484180222,0.2097134033832941,0.7955906256617677,-0.491762101650238,-0.7955707907676697,-0.3538884818553925,28739.032665375,unknown,2,2020-03-06 13:31:58.985 +0100,605190721.5570056,0,0.5100002,98.77238
2020-03-06 13:32:02.229 +0100,28742.275144,-0.55621337890625,-0.76837158203125,-0.3873291015625,28742.265096,1.007384720386163,-0.9468978483685346,0.9203874060039896,-0.2287362515926361,-0.4319292306900024,-0.2398472279310226,-0.07442450523376465,0.04659080505371094,-0.07213902473449707,XArbitraryZVertical,0.5433579431599658,-0.1670060934619457,0.2075287865219688,0.7961173784427183,-0.4914377331733704,-0.7958362698554993,-0.3537422120571136,28739.032665375,unknown,2,2020-03-06 13:31:58.985 +0100,605190721.5570056,0,0.5100002,98.77238
2020-03-06 13:32:02.239 +0100,28742.285193,-0.5645904541015625,-0.8235931396484375,-0.3593597412109375,28742.275144,1.001677625375099,-0.9469919689366552,0.9203552838140556,-0.3130387663841248,-0.4762034714221954,-0.2306836098432541,-0.06199562549591064,0.03785842657089233,-0.0480918288230896,XArbitraryZVertical,0.542879151351064,-0.1686024102193485,0.2052394467479093,0.7967008279369929,-0.4914917945861816,-0.7958167791366577,-0.3537109196186066,28739.032665375,unknown,2,2020-03-06 13:31:58.985 +0100,605190721.5570056,0,0.5100002,98.77238
2020-03-06 13:32:02.249 +0100,28742.295241,-0.555389404296875,-0.8098602294921875,-0.3318634033203125,28742.285193,0.9946177598684567,-0.9464008397757645,0.9198621401052288,-0.400661826133728,-0.5192886590957642,-0.2480085343122482,-0.06971418857574463,0.001274466514587402,-0.02024364471435547,XArbitraryZVertical,0.5420717439389378,-0.1704196402554151,0.2027211119138674,0.7975082835158025,-0.4916009306907654,-0.7955181002616882,-0.3542307317256927,28739.032665375,unknown,2,2020-03-06 13:31:58.985 +0100,605190721.5570056,0,0.5100002,98.77238
2020-03-06 13:32:02.259 +0100,28742.30529,-0.5543365478515625,-0.6954803466796875,-0.33709716796875,28742.295241,0.9867150564642486,-0.9456715300090773,0.918892092210269,-0.4586264491081238,-0.5791378617286682,-0.1940982937812805,-0.068431556224823,-0.04058873653411865,0.01120591163635254,XArbitraryZVertical,0.5410268806647552,-0.1725386971720805,0.2000307991342898,0.7984409618528189,-0.4919680058956146,-0.7949299216270447,-0.3550406396389008,28739.032665375,unknown,2,2020-03-06 13:31:58.985 +0100,605190721.5570056,0,0.5100002,98.77238
2020-03-06 13:32:02.269 +0100,28742.315338,-0.54168701171875,-0.6368408203125,-0.36248779296875,28742.30529,0.9788871499536129,-0.9453442915121618,0.917477460920635,-0.4303532838821411,-0.5874490737915039,-0.1877162903547287,-0.06255549192428589,0.03885924816131592,0.02844333648681641,XArbitraryZVertical,0.5398840349849466,-0.1749155035704249,0.1973785952803863,0.7993568823995703,-0.4927629232406616,-0.7940708994865417,-0.3558595776557922,28739.032665375,unknown,2,2020-03-06 13:31:58.985 +0100,605190721.5570056,0,0.5100002,98.77238
2020-03-06 13:32:02.279 +0100,28742.325387,-0.5181121826171875,-0.6367340087890625,-0.33026123046875,28742.315338,0.9717753116848415,-0.9455397779994554,0.9169010298187243,-0.2887756824493408,-0.5784794092178345,-0.2641884982585907,-0.05697262287139893,0.1390793919563293,0.002919137477874756,XArbitraryZVertical,0.5391012875780047,-0.1770712269521969,0.1946393277315543,0.8000819633933873,-0.4932036101818085,-0.7937203645706177,-0.3560311794281006,28739.032665375,unknown,2,2020-03-06 13:31:58.985 +0100,605190721.5570056,0,0.5100002,98.77238
2020-03-06 13:32:02.289 +0100,28742.335435,-0.524139404296875,-0.6685943603515625,-0.275634765625,28742.325387,0.966153488689133,-0.9469210574541554,0.9177113049342899,-0.1407739520072937,-0.5889269709587097,-0.3020807504653931,-0.03532063961029053,0.1606292724609375,-0.003830015659332275,XArbitraryZVertical,0.5389825222655215,-0.1789161625866143,0.1917967157438859,0.8004378890084689,-0.4931727051734924,-0.7942129969596863,-0.354973703622818,28739.032665375,unknown,2,2020-03-06 13:31:58.985 +0100,605190721.5570056,0,0.5100002,98.77238
2020-03-06 13:32:02.299 +0100,28742.345484,-0.5355377197265625,-0.784393310546875,-0.2796783447265625,28742.335435,0.9613047570602741,-0.9488237236925179,0.9191029405231463,-0.1423125267028809,-0.5583425164222717,-0.3230386674404144,-0.02507734298706055,0.149114727973938,0.05661356449127197,XArbitraryZVertical,0.539154410235114,-0.1806026942538936,0.1889636703271688,0.8006171542377258,-0.4929484128952026,-0.7950578331947327,-0.3533903658390045,28739.032665375,unknown,2,2020-03-06 13:31:58.985 +0100,605190721.5570056,0,0.5100002,98.77238
2020-03-06 13:32:02.310 +0100,28742.355532,-0.5125885009765625,-0.9066619873046875,-0.3087005615234375,28742.345484,0.9558355092802252,-0.9498347975456848,0.9205025992410103,-0.1870435029268265,-0.51109778881073,-0.3307501077651978,-0.0406251847743988,0.07754462957382202,0.08027797937393188,XArbitraryZVertical,0.5391827555193682,-0.1820987512627152,0.1861195648689449,0.8009253598550603,-0.4923999309539795,-0.7959060072898865,-0.3522439897060394,28739.032665375,unknown,2,2020-03-06 13:31:58.985 +0100,605190721.5570056,0,0.5100002,98.77238
2020-03-06 13:32:02.319 +0100,28742.365581,-0.46826171875,-0.9455413818359375,-0.3385009765625,28742.355532,0.9496311923245617,-0.9499400870670076,0.9213677953084415,-0.3008616268634796,-0.5088304877281189,-0.2787725925445557,-0.03617402911186218,-0.05459189414978027,0.05783772468566895,XArbitraryZVertical,0.5388912193880417,-0.1835769767581457,0.1833699694853339,0.8014182563119828,-0.4918768107891083,-0.7964295148849487,-0.3517915010452271,28739.032665375,unknown,2,2020-03-06 13:31:58.985 +0100,605190721.5570056,0,0.5100002,98.77238
2020-03-06 13:32:02.329 +0100,28742.375629,-0.44415283203125,-0.8891448974609375,-0.3470611572265625,28742.365581,0.9426511748732123,-0.9500450375305085,0.9210230386607023,-0.3953809440135956,-0.6136985421180725,-0.1753066629171371,0.001332879066467285,-0.1435913443565369,0.02716875076293945,XArbitraryZVertical,0.5381503136375846,-0.1855922373224824,0.1806375039850615,0.8020722056362674,-0.4921370148658752,-0.7962209582328796,-0.3518995344638824,28739.032665375,unknown,2,2020-03-06 13:31:58.985 +0100,605190721.5570056,0,0.5100002,98.77238
2020-03-06 13:32:02.339 +0100,28742.385677,-0.4580535888671875,-0.8121490478515625,-0.3227691650390625,28742.375629,0.9364869756355725,-0.9517134153042605,0.9197359625109794,-0.3421534895896912,-0.677716076374054,-0.06359254568815231,0.04148030281066895,-0.1280896067619324,0.002847969532012939,XArbitraryZVertical,0.5373258992290481,-0.1882676184358083,0.1780664522367094,0.8025761721904712,-0.4935576319694519,-0.7954416275024414,-0.351672351360321,28739.032665375,unknown,2,2020-03-06 13:31:58.985 +0100,605190721.5570056,0,0.5100002,98.77238
2020-03-06 13:32:02.350 +0100,28742.395726,-0.488037109375,-0.75860595703125,-0.34051513671875,28742.385677,0.9326597945531753,-0.9554436212813125,0.9184030071072765,-0.1822783350944519,-0.645199179649353,-0.02591920271515846,0.04804855585098267,-0.05699849128723145,0.01739364862442017,XArbitraryZVertical,0.5368802660522389,-0.1911525662220983,0.1758918422407814,0.8026719586835378,-0.4957313239574432,-0.7946330904960632,-0.3504405617713928,28739.032665375,unknown,2,2020-03-06 13:31:58.985 +0100,605190721.5570056,0,0.5100002,98.77238
2020-03-06 13:32:02.360 +0100,28742.405774,-0.4892578125,-0.792236328125,-0.400482177734375,28742.395726,0.930627736208715,-0.9600029904029029,0.9178037793033815,-0.08784063160419464,-0.5732138752937317,-0.07079420238733292,0.02381661534309387,0.01633757352828979,0.02211666107177734,XArbitraryZVertical,0.5368980820088814,-0.1936893929898073,0.1740159743175509,0.8024607586991023,-0.4977139532566071,-0.7942692041397095,-0.3484497368335724,28739.032665375,unknown,2,2020-03-06 13:31:58.985 +0100,605190721.5570056,0,0.5100002,98.77238
2020-03-06 13:32:02.370 +0100,28742.415823,-0.4754180908203125,-0.8574676513671875,-0.4800262451171875,28742.405774,0.9283173578090307,-0.9638419671154043,0.9177494842618262,-0.1289571821689606,-0.5700932145118713,-0.1149715185165405,0.006799101829528809,0.03038835525512695,-0.01814782619476318,XArbitraryZVertical,0.5369884563961496,-0.1958644492511631,0.1720732513072434,0.8022912350668897,-0.4990833699703217,-0.7942361831665039,-0.3465610444545746,28739.032665375,unknown,2,2020-03-06 13:31:58.985 +0100,605190721.5570056,0,0.5100002,98.77238
2020-03-06 13:32:02.380 +0100,28742.425871,-0.4759521484375,-0.842132568359375,-0.515899658203125,28742.415823,0.9253422778236599,-0.9677325970891371,0.9174312129213527,-0.196824386715889,-0.6696802973747253,-0.05862259119749069,0.01891088485717773,-0.03547900915145874,-0.09612053632736206,XArbitraryZVertical,0.536929488871267,-0.1983095877772796,0.169922517416191,0.802188481378176,-0.5006361603736877,-0.7940427660942078,-0.3447600603103638,28739.032665375,unknown,2,2020-03-06 13:31:58.985 +0100,605190721.5570056,0,0.5100002,98.77238
2020-03-06 13:32:02.390 +0100,28742.43592,-0.4988861083984375,-0.779876708984375,-0.4810943603515625,28742.425871,0.9225667760225441,-0.9730236769881918,0.9161988161068055,-0.2264589816331863,-0.7940033078193665,0.04339352250099182,0.03060019016265869,-0.06692934036254883,-0.1674836277961731,XArbitraryZVertical,0.5367178604466507,-0.2015082143382472,0.1677273951624618,0.8019948684183397,-0.5032616853713989,-0.7932930588722229,-0.3426567614078522,28739.032665375,unknown,2,2020-03-06 13:31:58.985 +0100,605190721.5570056,0,0.5100002,98.77238
2020-03-06 13:32:02.400 +0100,28742.445968,-0.5229949951171875,-0.7705841064453125,-0.42950439453125,28742.43592,0.9199783539661667,-0.9792892189941312,0.9144366413553844,-0.2580004632472992,-0.8441515564918518,0.06205858662724495,0.02259010076522827,-0.01749682426452637,-0.1646002531051636,XArbitraryZVertical,0.5364324262877697,-0.2051885522003807,0.1654935190055504,0.8017167114699706,-0.506558358669281,-0.7922189235687256,-0.3402758240699768,28739.032665375,unknown,2,2020-03-06 13:31:58.985 +0100,605190721.5570056,0,0.5100002,98.77238
2020-03-06 13:32:02.410 +0100,28742.456017,-0.519927978515625,-0.838470458984375,-0.416412353515625,28742.445968,0.9160613495219496,-0.9845847552517177,0.9126026154074288,-0.3711325824260712,-0.8297520875930786,0.0024080416187644,-0.00283282995223999,0.02586185932159424,-0.112956166267395,XArbitraryZVertical,0.535895664862801,-0.2088538303593243,0.1630097030824296,0.8016381417332283,-0.5095627903938293,-0.791098415851593,-0.3383918404579163,28739.032665375,unknown,2,2020-03-06 13:31:58.985 +0100,605190721.5570056,0,0.5100002,98.77238
2020-03-06 13:32:02.420 +0100,28742.466065,-0.493560791015625,-0.8982391357421875,-0.398834228515625,28742.456017,0.909957385375932,-0.9880991660802528,0.9106233050653741,-0.4617416560649872,-0.8468989729881287,-0.03213891759514809,-0.01387482881546021,-0.007729649543762207,-0.08231759071350098,XArbitraryZVertical,0.534925059144389,-0.2124269571009253,0.1601686293130783,0.8019201863558495,-0.5120553374290466,-0.7898861169815063,-0.3374599516391754,28739.032665375,unknown,2,2020-03-06 13:31:58.985 +0100,605190721.5570056,0,0.5100002,98.77238
2020-03-06 13:32:02.430 +0100,28742.476114,-0.4837188720703125,-0.8927459716796875,-0.381378173828125,28742.466065,0.9037285239051669,-0.9918636729051649,0.9083182144170632,-0.4267674088478088,-0.8823818564414978,0.03603933751583099,0.00768280029296875,-0.08809429407119751,-0.07157939672470093,XArbitraryZVertical,0.5338426393747684,-0.2162162140445696,0.1573020826757481,0.8021960904663822,-0.5148447155952454,-0.788470447063446,-0.336525171995163,28739.032665375,unknown,2,2020-03-06 13:31:58.985 +0100,605190721.5570056,0,0.5100002,98.77238
2020-03-06 13:32:02.440 +0100,28742.486162,-0.486602783203125,-0.88531494140625,-0.39227294921875,28742.476114,0.8992461118237679,-0.9971714702613794,0.9056680755732873,-0.3136166334152222,-0.8738602995872498,0.1070338860154152,0.0312497615814209,-0.1145531535148621,-0.05472087860107422,XArbitraryZVertical,0.5329460170199475,-0.220245919404085,0.154822356235076,0.8021784544305131,-0.5183770060539246,-0.786837637424469,-0.3349205553531647,28739.032665375,unknown,2,2020-03-06 13:31:58.985 +0100,605190721.5570056,0,0.5100002,98.77238
2020-03-06 13:32:02.450 +0100,28742.496211,-0.4776153564453125,-0.94427490234375,-0.3934326171875,28742.486162,0.8965029841577563,-1.003603135155441,0.9034894203812268,-0.2070702165365219,-0.8476063013076782,0.07466449588537216,0.03734016418457031,-0.09798574447631836,-0.05225872993469238,XArbitraryZVertical,0.5324601290524155,-0.2241345356053759,0.1526138986410019,0.8018471607674176,-0.5219649076461792,-0.7854911684989929,-0.3324998319149017,28739.032665375,unknown,2,2020-03-06 13:31:58.985 +0100,605190721.5570056,0,0.5100002,98.77238
2020-03-06 13:32:02.460 +0100,28742.506259,-0.4509735107421875,-1.00775146484375,-0.4478302001953125,28742.496211,0.8942869102102525,-1.01022470017197,0.9018970923499771,-0.1785303354263306,-0.8296478390693665,0.07503081113100052,0.04051268100738525,-0.1216162443161011,-0.0630837082862854,XArbitraryZVertical,0.5322181936463529,-0.2278010695114231,0.1504064755092465,0.801391490373297,-0.5252137780189514,-0.784504771232605,-0.3297009468078613,28739.032665375,unknown,2,2020-03-06 13:31:58.985 +0100,605190721.5570056,0,0.5100002,98.77238
2020-03-06 13:32:02.470 +0100,28742.516308,-0.4317779541015625,-1.023330688476562,-0.4763641357421875,28742.506259,0.8925516870248056,-1.017361240791263,0.8999827813079249,-0.2176564335823059,-0.8766829967498779,0.1389685273170471,0.06283605098724365,-0.1995259523391724,-0.09099960327148438,XArbitraryZVertical,0.5319599205554714,-0.2316292192743742,0.1483474166947328,0.8008492424878293,-0.5288299322128296,-0.7833161950111389,-0.3267330825328827,28739.032665375,unknown,2,2020-03-06 13:31:58.985 +0100,605190721.5570056,0,0.5100002,98.77238
2020-03-06 13:32:02.480 +0100,28742.526356,-0.4352264404296875,-1.02587890625,-0.4770050048828125,28742.516308,0.8904836001910117,-1.025072922663455,0.8970693922349481,-0.2996273636817932,-0.9767494797706604,0.2241472899913788,0.09475409984588623,-0.2373204827308655,-0.1402909755706787,XArbitraryZVertical,0.531386536723354,-0.2360384623524524,0.1462860912525106,0.8003215011630831,-0.5332822203636169,-0.781501829624176,-0.323828399181366,28739.032665375,unknown,2,2020-03-06 13:31:58.985 +0100,605190721.5570056,0,0.5100002,98.77238
2020-03-06 13:32:02.490 +0100,28742.536405,-0.4423065185546875,-1.015975952148438,-0.441864013671875,28742.526356,0.8877836391405218,-1.033121429232789,0.8928001546986802,-0.4376773834228516,-1.04559850692749,0.3277074992656708,0.1064904928207397,-0.2481546401977539,-0.1606642007827759,XArbitraryZVertical,0.5303321569297591,-0.2411057689604787,0.1442704846702777,0.7998761069029541,-0.5387320518493652,-0.7788311243057251,-0.3212316334247589,28739.032665375,unknown,2,2020-03-06 13:31:58.985 +0100,605190721.5570056,0,0.5100002,98.77238
2020-03-06 13:32:02.516 +0100,28742.546453,-0.4708709716796875,-0.964691162109375,-0.3759918212890625,28742.536405,0.8835934913076626,-1.040729681384482,0.8869524947740222,-0.6057829260826111,-1.116012692451477,0.4043196141719818,0.1064149737358093,-0.2462510466575623,-0.145293653011322,XArbitraryZVertical,0.5285620268660982,-0.2468031900054472,0.142230839624632,0.7996753574022535,-0.5450804829597473,-0.7751500010490417,-0.319420725107193,28739.032665375,unknown,2,2020-03-06 13:31:58.985 +0100,605190721.5570056,0,0.5100002,98.77238
2020-03-06 13:32:02.518 +0100,28742.556502,-0.529571533203125,-0.8455963134765625,-0.2742462158203125,28742.546453,0.8776944088872222,-1.047729161240482,0.879781352929241,-0.7549905180931091,-1.177774548530579,0.4558083713054657,0.1010637283325195,-0.2312091588973999,-0.09454441070556641,XArbitraryZVertical,0.5261030136028992,-0.2530463511374327,0.1400551595858552,0.7997297313174859,-0.5521042346954346,-0.7705995440483093,-0.3183663189411163,28739.032665375,unknown,2,2020-03-06 13:31:58.985 +0100,605190721.5570056,0,0.5100002,98.77238
2020-03-06 13:32:02.520 +0100,28742.56655,-0.586639404296875,-0.7403106689453125,-0.24163818359375,28742.556502,0.8697729159922776,-1.05338700885825,0.8714630012455467,-0.9517018795013428,-1.148971676826477,0.4689545929431915,0.06214338541030884,-0.1431533098220825,-0.005707502365112305,XArbitraryZVertical,0.5229019278532755,-0.2595668453321386,0.13776004797754,0.8001379783820447,-0.5594485998153687,-0.7652714848518372,-0.3183972537517548,28739.032665375,unknown,2,2020-03-06 13:31:58.985 +0100,605190721.5570056,0,0.5100002,98.77238
2020-03-06 13:32:02.530 +0100,28742.576598,-0.6092071533203125,-0.6496124267578125,-0.2396240234375,28742.56655,0.8589719734852618,-1.056344245487777,0.8624499874688194,-1.134440064430237,-1.080514550209045,0.3955477476119995,0.004794180393218994,-0.02976900339126587,0.07237255573272705,XArbitraryZVertical,0.5188749172772193,-0.2659090295229601,0.1352203155953526,0.8011096013397173,-0.5663694143295288,-0.7594387531280518,-0.3201224207878113,28739.032665375,unknown,2,2020-03-06 13:31:58.985 +0100,605190721.5570056,0,0.5100002,98.77238
2020-03-06 13:32:02.541 +0100,28742.586647,-0.6186981201171875,-0.56463623046875,-0.2313690185546875,28742.576598,0.8459102650788154,-1.057094338137286,0.8536973095129965,-1.194549202919006,-1.033042192459106,0.2895483374595642,-0.02827620506286621,0.0585782527923584,0.08157992362976074,XArbitraryZVertical,0.5144189826337804,-0.2718405444174583,0.1322669067848912,0.8024844244496557,-0.5723768472671509,-0.753715455532074,-0.3229516446590424,28739.032665375,unknown,2,2020-03-06 13:31:58.985 +0100,605190721.5570056,0,0.5100002,98.77238
2020-03-06 13:32:02.550 +0100,28742.596695,-0.6240997314453125,-0.48956298828125,-0.225372314453125,28742.586647,0.8319129653692776,-1.0565955931252,0.8455718084011886,-1.193990707397461,-0.9601181745529175,0.2202464938163757,-0.03678053617477417,0.14150071144104,0.08768963813781738,XArbitraryZVertical,0.5098889544524043,-0.2772976081733116,0.1290663274725588,0.8040280904750339,-0.5775291323661804,-0.7483505010604858,-0.3262385725975037,28739.032665375,unknown,2,2020-03-06 13:31:58.985 +0100,605190721.5570056,0,0.5100002,98.77238
2020-03-06 13:32:02.561 +0100,28742.606744,-0.6306304931640625,-0.4320220947265625,-0.21044921875,28742.606744,0.8058026193693989,-1.054786356069085,0.8325304357000428,-0.8583989143371582,-0.7904053926467896,0.04138320311903954,-0.04132252931594849,0.2834522724151611,0.1064456701278687,XArbitraryZVertical,0.5019081599146966,-0.2864489519608256,0.1226738349122733,0.8068371706729173,-0.5853773355484009,-0.7396367192268372,-0.332070380449295,28739.032665375,unknown,2,2020-03-06 13:31:58.985 +0100,605190721.5570056,0,0.5100002,98.77238
2020-03-06 13:32:02.571 +0100,28742.616792375,-0.6497039794921875,-0.4080047607421875,-0.19281005859375,28742.606744,0.8058026193693989,-1.054786356069085,0.8325304357000428,-0.8583989143371582,-0.7904053926467896,0.04138320311903954,-0.04132252931594849,0.2834522724151611,0.1064456701278687,XArbitraryZVertical,0.5019081599146966,-0.2864489519608256,0.1226738349122733,0.8068371706729173,-0.5853773355484009,-0.7396367192268372,-0.332070380449295,28739.032665375,unknown,2,2020-03-06 13:31:58.985 +0100,605190721.5570056,0,0.5100002,98.77238
2020-03-06 13:32:02.581 +0100,28742.626841375,-0.6623687744140625,-0.42559814453125,-0.24688720703125,28742.616792375,0.796566116338478,-1.055261740903831,0.8290473950831795,-0.577639102935791,-0.6501126885414124,-0.04722069576382637,-0.05227839946746826,0.3214022517204285,0.1408673524856567,XArbitraryZVertical,0.4994764439378349,-0.2898158273064791,0.1198023541072721,0.8075750047362523,-0.5877729654312134,-0.7372881174087524,-0.3330601453781128,28739.032665375,unknown,2,2020-03-06 13:31:58.985 +0100,605190721.5570056,0,0.5100002,98.77238
2020-03-06 13:32:02.591 +0100,28742.636889375,-0.6703033447265625,-0.4896240234375,-0.2984771728515625,28742.626841375,0.789686797495959,-1.056008452764907,0.827443733701237,-0.386223316192627,-0.5165761709213257,-0.1313496828079224,-0.06864064931869507,0.3266198635101318,0.117572546005249,XArbitraryZVertical,0.4979975056615662,-0.2922277406925348,0.1172863313066406,0.8079884235344952,-0.5890498757362366,-0.7362037897109985,-0.3332028687000275,28739.032665375,unknown,2,2020-03-06 13:31:58.985 +0100,605190721.5570056,0,0.5100002,98.77238
2020-03-06 13:32:02.601 +0100,28742.646938375,-0.6825103759765625,-0.5573577880859375,-0.3136138916015625,28742.636889375,0.7843827328777818,-1.05704578510501,0.8274101210033173,-0.2548116445541382,-0.4753693640232086,-0.2104796171188354,-0.07658982276916504,0.2828348278999329,0.05728119611740112,XArbitraryZVertical,0.4972694366485536,-0.2939748399697021,0.1148946014627471,0.8081466872920641,-0.5894167423248291,-0.7361810803413391,-0.3326038122177124,28739.032665375,unknown,2,2020-03-06 13:31:58.985 +0100,605190721.5570056,0,0.5100002,98.77238
2020-03-06 13:32:02.611 +0100,28742.656986375,-0.6809234619140625,-0.617828369140625,-0.283935546875,28742.646938375,0.779549287271266,-1.058250822360008,0.8281358838321428,-0.266110897064209,-0.4690083861351013,-0.2283182740211487,-0.08666503429412842,0.2116551399230957,0.01756656169891357,XArbitraryZVertical,0.4968627987598308,-0.2954856521142968,0.1124389893992598,0.8081911758232998,-0.5893512964248657,-0.736672043800354,-0.3316311836242676,28739.032665375,unknown,2,2020-03-06 13:31:58.985 +0100,605190721.5570056,0,0.5100002,98.77238
2020-03-06 13:32:02.621 +0100,28742.667035375,-0.6401214599609375,-0.684722900390625,-0.2965545654296875,28742.656986375,0.7732960780970025,-1.05816329844832,0.8281801894460986,-0.4841726124286652,-0.4351422190666199,-0.186617910861969,-0.09680867195129395,0.1504669189453125,0.03522598743438721,XArbitraryZVertical,0.4959462236682208,-0.2969915421461117,0.1099208620346018,0.8085484859400823,-0.5892937779426575,-0.736702024936676,-0.3316667377948761,28739.032665375,unknown,2,2020-03-06 13:31:58.985 +0100,605190721.5570056,0,0.5100002,98.77238
2020-03-06 13:32:02.631 +0100,28742.677083375,-0.5850067138671875,-0.785858154296875,-0.27783203125,28742.667035375,0.7640548119558253,-1.055835224521015,0.8263759554999816,-0.7705684304237366,-0.4615184366703033,-0.1121394112706184,-0.07509481906890869,0.08677619695663452,0.04260694980621338,XArbitraryZVertical,0.4938506649410211,-0.2987734967233521,0.1072622027074184,0.8095311136537239,-0.5896759033203125,-0.7354807257652283,-0.3336918354034424,28739.032665375,unknown,2,2020-03-06 13:31:58.985 +0100,605190721.5570056,0,0.5100002,98.77238
2020-03-06 13:32:02.641 +0100,28742.687132375,-0.5542144775390625,-0.9021759033203125,-0.240478515625,28742.677083375,0.7521448713086419,-1.051933020822237,0.822818737955105,-0.9589663147926331,-0.4903227090835571,-0.06522486358880997,-0.02113944292068481,0.003245651721954346,0.04772651195526123,XArbitraryZVertical,0.4906825332385327,-0.300978184822289,0.104386781207977,0.8110154319274847,-0.5906374454498291,-0.7330659031867981,-0.337285578250885,28739.032665375,unknown,2,2020-03-06 13:31:58.985 +0100,605190721.5570056,0,0.5100002,98.77238
2020-03-06 13:32:02.651 +0100,28742.697180375,-0.5352935791015625,-0.9426422119140625,-0.26239013671875,28742.687132375,0.7393534803204853,-1.047363065499253,0.8182081402254747,-0.9872898459434509,-0.46216881275177,0.002136599272489548,0.02671241760253906,-0.1170550584793091,0.0843346118927002,XArbitraryZVertical,0.4869786750127613,-0.3033450358176414,0.1015876499252225,0.8127198079720163,-0.5920110940933228,-0.7299222350120544,-0.341667115688324,28739.032665375,unknown,2,2020-03-06 13:31:58.985 +0100,605190721.5570056,0,0.5100002,98.77238
2020-03-06 13:32:02.661 +0100,28742.707229375,-0.51141357421875,-0.9024200439453125,-0.32720947265625,28742.697180375,0.7273551061510942,-1.04334105813401,0.812863023451546,-0.9579620361328125,-0.486883282661438,0.1003933995962143,0.04725086688995361,-0.2097539901733398,0.1009244322776794,XArbitraryZVertical,0.4831545537733122,-0.3058750687729951,0.09915511970686378,0.8143526800856546,-0.5939948558807373,-0.7262582778930664,-0.3460042476654053,28739.032665375,unknown,2,2020-03-06 13:31:58.985 +0100,605190721.5570056,0,0.5100002,98.77238
2020-03-06 13:32:02.671 +0100,28742.717277375,-0.5156402587890625,-0.8394927978515625,-0.4128875732421875,28742.707229375,0.7169653455469137,-1.041138649881158,0.8070217220169379,-0.8402125239372253,-0.570496678352356,0.1801100522279739,0.07394194602966309,-0.2070068120956421,0.06559664011001587,XArbitraryZVertical,0.4794742542064575,-0.3088363806522479,0.09705411109054611,0.8156622812101579,-0.5968822836875916,-0.7222304344177246,-0.3494490683078766,28739.032665375,unknown,2,2020-03-06 13:31:58.985 +0100,605190721.5570056,0,0.5100002,98.77238
2020-03-06 13:32:02.681 +0100,28742.727326375,-0.5556182861328125,-0.7965850830078125,-0.4150543212890625,28742.717277375,0.709723216281702,-1.041793980018566,0.801710625255473,-0.5313031673431396,-0.5870007872581482,0.2237908542156219,0.09351080656051636,-0.1528139710426331,-0.03084027767181396,XArbitraryZVertical,0.4765758363653955,-0.3120594503424845,0.09539677989519052,0.8163294473391014,-0.6004142165184021,-0.7185468673706055,-0.3509887456893921,28739.032665375,unknown,2,2020-03-06 13:31:58.985 +0100,605190721.5570056,0,0.5100002,98.77238
2020-03-06 13:32:02.691 +0100,28742.737374375,-0.568878173828125,-0.76336669921875,-0.4252777099609375,28742.727326375,0.70683808714443,-1.0454350843225,0.7977832349289803,-0.2174549400806427,-0.5472896099090576,0.2521940171718597,0.06925219297409058,-0.09956640005111694,-0.06161487102508545,XArbitraryZVertical,0.4749576197486458,-0.3151330185722844,0.09442856794323473,0.8162044165407277,-0.6041250824928284,-0.7158098816871643,-0.3502128720283508,28739.032665375,unknown,2,2020-03-06 13:31:58.985 +0100,605190721.5570056,0,0.5100002,98.77238
2020-03-06 13:32:02.701 +0100,28742.747423375,-0.5535430908203125,-0.706878662109375,-0.42010498046875,28742.737374375,0.7074901188756567,-1.051281186269494,0.7946953649142825,-0.02887522056698799,-0.5310318470001221,0.3282905519008636,0.03887277841567993,-0.0675005316734314,-0.07609611749649048,XArbitraryZVertical,0.4742842973534862,-0.318070727109041,0.09415488751900661,0.8154877484758729,-0.6080779433250427,-0.7136502265930176,-0.3477708399295807,28739.032665375,unknown,2,2020-03-06 13:31:58.985 +0100,605190721.5570056,0,0.5100002,98.77238
2020-03-06 13:32:02.711 +0100,28742.757471375,-0.54486083984375,-0.6122283935546875,-0.4071197509765625,28742.747423375,0.7097885927131207,-1.05825311381924,0.7913927900001005,-0.04435670748353004,-0.5329527854919434,0.3954253792762756,0.05135935544967651,-0.02906161546707153,-0.07862544059753418,XArbitraryZVertical,0.4738570685448679,-0.3211246622552718,0.09434907692070139,0.8145162053978001,-0.6125384569168091,-0.7113329172134399,-0.3446768522262573,28739.032665375,unknown,2,2020-03-06 13:31:58.985 +0100,605190721.5570056,0,0.5100002,98.77238
2020-03-06 13:32:02.721 +0100,28742.767519375,-0.5416107177734375,-0.510009765625,-0.4086151123046875,28742.757471375,0.7108105531291435,-1.064415092732587,0.7872216332100963,-0.2488791942596436,-0.5494630336761475,0.3858824372291565,0.06941229104995728,0.04597300291061401,-0.07155567407608032,XArbitraryZVertical,0.4728971295565675,-0.3243490699788278,0.09446067936246816,0.8137831799544835,-0.6172400116920471,-0.7083950042724609,-0.3423319756984711,28739.032665375,unknown,2,2020-03-06 13:31:58.985 +0100,605190721.5570056,0,0.5100002,98.77238
2020-03-06 13:32:02.731 +0100,28742.777568375,-0.5644989013671875,-0.4432525634765625,-0.4204254150390625,28742.767519375,0.7087401912151825,-1.068526034095094,0.7824456845295993,-0.4565093517303467,-0.5507102012634277,0.2993086874485016,0.08039504289627075,0.1453161239624023,-0.06523841619491577,XArbitraryZVertical,0.4711329145074927,-0.3276057197584086,0.09397314950322412,0.8135583859441115,-0.6216004490852356,-0.7050159573554993,-0.3414165377616882,28739.032665375,unknown,2,2020-03-06 13:31:58.985 +0100,605190721.5570056,0,0.5100002,98.77238
2020-03-06 13:32:02.741 +0100,28742.787616375,-0.5988006591796875,-0.4139251708984375,-0.448211669921875,28742.777568375,0.7041356251886287,-1.070645332313654,0.7778785734978806,-0.5301892161369324,-0.5077993273735046,0.1847278475761414,0.07529973983764648,0.2292281985282898,-0.06999039649963379,XArbitraryZVertical,0.4689223518084624,-0.3305938803706526,0.0928702394140227,0.8137534387828641,-0.6251416802406311,-0.7017697095870972,-0.3416390419006348,28739.032665375,unknown,2,2020-03-06 13:31:58.985 +0100,605190721.5570056,0,0.5100002,98.77238
2020-03-06 13:32:02.752 +0100,28742.797665375,-0.6313018798828125,-0.4359130859375,-0.434417724609375,28742.787616375,0.6989684012873304,-1.071826602263648,0.7743819652075681,-0.4310376048088074,-0.4474020600318909,0.07983658462762833,0.0461307168006897,0.2758967280387878,-0.09235358238220215,XArbitraryZVertical,0.4669285534701952,-0.3330788295869704,0.0914621962614631,0.8140460051111085,-0.627695620059967,-0.6992744207382202,-0.3420724272727966,28739.032665375,unknown,2,2020-03-06 13:31:58.985 +0100,605190721.5570056,0,0.5100002,98.77238
2020-03-06 13:32:02.762 +0100,28742.807713375,-0.652587890625,-0.546661376953125,-0.3720703125,28742.797665375,0.6948603498238312,-1.073126881733812,0.7722892475793159,-0.2763316333293915,-0.3811790347099304,0.01213190890848637,0.01387804746627808,0.2822880148887634,-0.1109811663627625,XArbitraryZVertical,0.4655872278289712,-0.335039750185044,0.0900680475904654,0.8141649892513118,-0.6294243335723877,-0.6977769136428833,-0.3419537842273712,28739.032665375,unknown,2,2020-03-06 13:31:58.985 +0100,605190721.5570056,0,0.5100002,98.77238
2020-03-06 13:32:02.772 +0100,28742.817762375,-0.634185791015625,-0.693023681640625,-0.3570709228515625,28742.807713375,0.6925546426478676,-1.074967540913627,0.7714627410139798,-0.09065765142440796,-0.3040080964565277,-0.02087024971842766,-0.01527535915374756,0.2168152928352356,-0.05708694458007812,XArbitraryZVertical,0.4650002056007599,-0.3365120600633326,0.08893090746664634,0.8140181956222724,-0.6305596828460693,-0.6971846222877502,-0.3410688936710358,28739.032665375,unknown,2,2020-03-06 13:31:58.985 +0100,605190721.5570056,0,0.5100002,98.77238
2020-03-06 13:32:02.782 +0100,28742.827810375,-0.6099853515625,-0.831390380859375,-0.3065338134765625,28742.817762375,0.6919393395370271,-1.077322345536353,0.7714270544963586,-0.009641356766223907,-0.2629453539848328,-0.0128802340477705,-0.01628321409225464,0.0775836706161499,-0.02657830715179443,XArbitraryZVertical,0.4649885298371343,-0.3376213902259956,0.08814299587881938,0.8136511979920131,-0.6313830614089966,-0.6971590518951416,-0.3395949304103851,28739.032665375,unknown,2,2020-03-06 13:31:58.985 +0100,605190721.5570056,0,0.5100002,98.77238
2020-03-06 13:32:02.792 +0100,28742.837859375,-0.6218719482421875,-0.901611328125,-0.2488250732421875,28742.827810375,0.6918692560045245,-1.080085971561745,0.7714739828013505,0.0005803881213068962,-0.299684464931488,0.0006030844524502754,0.01329541206359863,-0.0683329701423645,0.004420638084411621,XArbitraryZVertical,0.4651140317709492,-0.3387510814575781,0.08745879272886586,0.8131835846397257,-0.632290244102478,-0.6971926689147949,-0.3378332853317261,28739.032665375,unknown,2,2020-03-06 13:31:58.985 +0100,605190721.5570056,0,0.5100002,98.77238
2020-03-06 13:32:02.802 +0100,28742.847907375,-0.6557769775390625,-0.8948974609375,-0.212921142578125,28742.837859375,0.6916458691527091,-1.0830217096647,0.7713236291211136,-0.04656674712896347,-0.3133869469165802,0.01653734222054482,0.02278459072113037,-0.1812337636947632,0.05675029754638672,XArbitraryZVertical,0.465152724639586,-0.3400302720393962,0.08672719009048196,0.8127057803127034,-0.633371889591217,-0.697084903717041,-0.3360247015953064,28739.032665375,unknown,2,2020-03-06 13:31:58.985 +0100,605190721.5570056,0,0.5100002,98.77238
2020-03-06 13:32:02.812 +0100,28742.857956375,-0.6915435791015625,-0.83074951171875,-0.23028564453125,28742.847907375,0.691270304432991,-1.085722658418326,0.7706705514397919,-0.04527165740728378,-0.2694045901298523,0.07932163029909134,-0.002564668655395508,-0.208038866519928,0.1122269034385681,XArbitraryZVertical,0.4649830835904146,-0.341362317996338,0.08612909654875936,0.8123079751376802,-0.6346797943115234,-0.6966164708137512,-0.3345249891281128,28739.032665375,unknown,2,2020-03-06 13:31:58.985 +0100,605190721.5570056,0,0.5100002,98.77238
2020-03-06 13:32:02.822 +0100,28742.868004375,-0.734954833984375,-0.725128173828125,-0.2666778564453125,28742.868004375,0.6954457156332692,-1.09220803896597,0.7691780804936231,0.2480117827653885,-0.07250849902629852,0.1523262709379196,-0.07533776760101318,-0.08293533325195312,0.08648741245269775,XArbitraryZVertical,0.4654710368901933,-0.3433607264894404,0.08673349041042495,0.8111210230977958,-0.6377580761909485,-0.695544958114624,-0.3308802545070648,28739.032665375,unknown,2,2020-03-06 13:31:58.985 +0100,605190721.5570056,0,0.5100002,98.77238
2020-03-06 13:32:02.832 +0100,28742.878053375,-0.75390625,-0.644805908203125,-0.326751708984375,28742.868004375,0.6954457156332692,-1.09220803896597,0.7691780804936231,0.2480117827653885,-0.07250849902629852,0.1523262709379196,-0.07533776760101318,-0.08293533325195312,0.08648741245269775,XArbitraryZVertical,0.4654710368901933,-0.3433607264894404,0.08673349041042495,0.8111210230977958,-0.6377580761909485,-0.695544958114624,-0.3308802545070648,28739.032665375,unknown,2,2020-03-06 13:31:58.985 +0100,605190721.5570056,0,0.5100002,98.77238
2020-03-06 13:32:02.842 +0100,28742.888101375,-0.7397003173828125,-0.6255035400390625,-0.3765869140625,28742.888101375,0.7046837352378141,-1.099260143015417,0.7700386149525261,0.374235600233078,-0.03282082825899124,0.07641258835792542,-0.1089237332344055,0.06877505779266357,-0.03025913238525391,XArbitraryZVertical,0.4676582139761759,-0.3438670077462939,0.08858868776827446,0.8094462916879607,-0.6395422220230103,-0.6961629390716553,-0.3261025547981262,28739.032665375,unknown,2,2020-03-06 13:31:58.985 +0100,605190721.5570056,0,0.5100002,98.77238
2020-03-06 13:32:02.852 +0100,28742.898150375,-0.7200927734375,-0.650482177734375,-0.42205810546875,28742.888101375,0.7046837352378141,-1.099260143015417,0.7700386149525261,0.374235600233078,-0.03282082825899124,0.07641258835792542,-0.1089237332344055,0.06877505779266357,-0.03025913238525391,XArbitraryZVertical,0.4676582139761759,-0.3438670077462939,0.08858868776827446,0.8094462916879607,-0.6395422220230103,-0.6961629390716553,-0.3261025547981262,28739.032665375,unknown,2,2020-03-06 13:31:58.985 +0100,605190721.5570056,0,0.5100002,98.77238
2020-03-06 13:32:02.862 +0100,28742.908198375,-0.7043914794921875,-0.6734619140625,-0.46014404296875,28742.898150375,0.7101771133376309,-1.103619574165484,0.7711563881781022,0.4214386940002441,-0.07536956667900085,0.08618366718292236,-0.08848899602890015,0.06051331758499146,-0.07357728481292725,XArbitraryZVertical,0.4691730221596196,-0.3440876264207656,0.08947325723779771,0.8083779352194339,-0.6402625441551208,-0.6969649791717529,-0.322960764169693,28739.032665375,unknown,2,2020-03-06 13:31:58.985 +0100,605190721.5570056,0,0.5100002,98.77238
2020-03-06 13:32:02.872 +0100,28742.918247375,-0.69049072265625,-0.6979827880859375,-0.43048095703125,28742.908198375,0.7159518852642432,-1.108571915407363,0.7722234495103724,0.399177610874176,-0.1107613742351532,0.09110651910305023,-0.07106870412826538,0.03204226493835449,-0.129711389541626,XArbitraryZVertical,0.470747110480917,-0.344485237478514,0.09033897886655813,0.8071962917505457,-0.6411880254745483,-0.697729766368866,-0.319454163312912,28739.032665375,unknown,2,2020-03-06 13:31:58.985 +0100,605190721.5570056,0,0.5100002,98.77238
2020-03-06 13:32:02.882 +0100,28742.928295375,-0.6618804931640625,-0.74542236328125,-0.40289306640625,28742.918247375,0.7209875675801684,-1.113365060660867,0.7729645395171936,0.3073331713676453,-0.1457963138818741,0.09934457391500473,-0.05594038963317871,0.01745158433914185,-0.13344407081604,XArbitraryZVertical,0.4720796474190181,-0.3450600348696584,0.091029063620713,0.8060943094740183,-0.6422477960586548,-0.6982604265213013,-0.3161487579345703,28739.032665375,unknown,2,2020-03-06 13:31:58.985 +0100,605190721.5570056,0,0.5100002,98.77238
2020-03-06 13:32:02.893 +0100,28742.938344375,-0.6371917724609375,-0.751312255859375,-0.3452301025390625,28742.928295375,0.7249313487783026,-1.117882338006262,0.7729925426724438,0.2012322992086411,-0.2080524861812592,0.1462963819503784,-0.03503572940826416,-0.0250699520111084,-0.1023603677749634,XArbitraryZVertical,0.4729764408367631,-0.3459413407779426,0.09154235707208173,0.8051321402208692,-0.6436517238616943,-0.6982805132865906,-0.3132357597351074,28739.032665375,unknown,2,2020-03-06 13:31:58.985 +0100,605190721.5570056,0,0.5100002,98.77238
2020-03-06 13:32:02.902 +0100,28742.948392375,-0.635284423828125,-0.7052001953125,-0.2958831787109375,28742.938344375,0.7277598542150636,-1.122205337994047,0.7719709184545318,0.06886402517557144,-0.2509529590606689,0.2079233229160309,-0.001734137535095215,-0.05747890472412109,-0.06881046295166016,XArbitraryZVertical,0.473326467698936,-0.3472495721481962,0.0919506174899099,0.804316371625629,-0.6456423401832581,-0.6975488066673279,-0.310759574174881,28739.032665375,unknown,2,2020-03-06 13:31:58.985 +0100,605190721.5570056,0,0.5100002,98.77238
2020-03-06 13:32:02.912 +0100,28742.958440375,-0.629608154296875,-0.636322021484375,-0.2656707763671875,28742.948392375,0.7290270241372517,-1.125683641027367,0.7700154949738828,-0.06046173721551895,-0.2574295103549957,0.2116064727306366,0.01183360815048218,-0.03724443912506104,-0.007772922515869141,XArbitraryZVertical,0.4730605229169982,-0.3488042459635579,0.09219900083243222,0.8037715383536579,-0.6479492783546448,-0.6961463689804077,-0.3090986907482147,28739.032665375,unknown,2,2020-03-06 13:31:58.985 +0100,605190721.5570056,0,0.5100002,98.77238
2020-03-06 13:32:02.924 +0100,28742.968489375,-0.629974365234375,-0.578582763671875,-0.2415771484375,28742.968489375,0.7300032627346871,-1.130428910021911,0.7664386868231882,0.06430324912071228,-0.1386773288249969,0.1383144110441208,0.0226367712020874,0.08968484401702881,0.05377626419067383,XArbitraryZVertical,0.4722692629058028,-0.3513143574327982,0.09249982038344375,0.8031087499091129,-0.6516569256782532,-0.6935741305351257,-0.307079941034317,28739.032665375,unknown,2,2020-03-06 13:31:58.985 +0100,605190721.5570056,0,0.5100002,98.77238
2020-03-06 13:32:02.932 +0100,28742.978537375,-0.6392974853515625,-0.569305419921875,-0.2457275390625,28742.968489375,0.7300032627346871,-1.130428910021911,0.7664386868231882,0.06430324912071228,-0.1386773288249969,0.1383144110441208,0.0226367712020874,0.08968484401702881,0.05377626419067383,XArbitraryZVertical,0.4722692629058028,-0.3513143574327982,0.09249982038344375,0.8031087499091129,-0.6516569256782532,-0.6935741305351257,-0.307079941034317,28739.032665375,unknown,2,2020-03-06 13:31:58.985 +0100,605190721.5570056,0,0.5100002,98.77238
2020-03-06 13:32:02.942 +0100,28742.988586375,-0.64495849609375,-0.5942840576171875,-0.287750244140625,28742.978537375,0.732710217220754,-1.133204630312042,0.7656700907013866,0.2378861457109451,-0.04800643026828766,0.1400952041149139,0.01926970481872559,0.1243484020233154,0.06719124317169189,XArbitraryZVertical,0.4726205827599245,-0.351968628682338,0.09315257396033422,0.8025399546241458,-0.6529894471168518,-0.693020224571228,-0.3054957389831543,28739.032665375,unknown,2,2020-03-06 13:31:58.985 +0100,605190721.5570056,0,0.5100002,98.77238
2020-03-06 13:32:02.953 +0100,28742.998634375,-0.6335906982421875,-0.65777587890625,-0.348968505859375,28742.988586375,0.7372222357431075,-1.136545620585771,0.7657326939283738,0.3449343144893646,-0.005565226543694735,0.1209763661026955,0.009398400783538818,0.1148415207862854,0.03935492038726807,XArbitraryZVertical,0.4735919554621124,-0.3522266051662745,0.09415378135513612,0.8017369065086002,-0.6539670825004578,-0.693065345287323,-0.3032941520214081,28739.032665375,unknown,2,2020-03-06 13:31:58.985 +0100,605190721.5570056,0,0.5100002,98.77238
2020-03-06 13:32:02.963 +0100,28743.008683375,-0.6150665283203125,-0.7299041748046875,-0.398590087890625,28742.998634375,0.7422993159974085,-1.140121402068693,0.7662262707456141,0.3825634121894836,-0.04146363213658333,0.0878242701292038,0.01128178834915161,0.07279306650161743,-0.01671707630157471,XArbitraryZVertical,0.4748172919985266,-0.3523394000691973,0.09519697858288409,0.8008389681522631,-0.6547365784645081,-0.6934210658073425,-0.3008109629154205,28739.032665375,unknown,2,2020-03-06 13:31:58.985 +0100,605190721.5570056,0,0.5100002,98.77238
2020-03-06 13:32:02.974 +0100,28743.018731375,-0.6038970947265625,-0.744293212890625,-0.37530517578125,28743.008683375,0.7473538324706657,-1.144245797080609,0.7668118484012109,0.3322775959968567,-0.110311932861805,0.1191904544830322,0.03106808662414551,-0.003277301788330078,-0.083263099193573,XArbitraryZVertical,0.4760966287144062,-0.3526499951876895,0.09606890333280141,0.7998379396675586,-0.6556018590927124,-0.693842887878418,-0.2979399561882019,28739.032665375,unknown,2,2020-03-06 13:31:58.985 +0100,605190721.5570056,0,0.5100002,98.77238
2020-03-06 13:32:02.983 +0100,28743.028780375,-0.608551025390625,-0.7466583251953125,-0.334808349609375,28743.018731375,0.7505768248503323,-1.147779935099626,0.7662434458516012,0.02994229272007942,-0.1795486658811569,0.2000935226678848,0.04842185974121094,-0.04963093996047974,-0.1000227928161621,XArbitraryZVertical,0.4766508087244524,-0.3534296664368381,0.09668110828700137,0.7990895983059556,-0.6570101976394653,-0.6934334635734558,-0.2957829535007477,28739.032665375,unknown,2,2020-03-06 13:31:58.985 +0100,605190721.5570056,0,0.5100002,98.77238
2020-03-06 13:32:03.009 +0100,28743.038828375,-0.617767333984375,-0.7329864501953125,-0.31756591796875,28743.028780375,0.7493239511214652,-1.149011671046044,0.7635982847104393,-0.4021132588386536,-0.2543073296546936,0.2172112613916397,0.05462247133255005,-0.05204284191131592,-0.05619794130325317,XArbitraryZVertical,0.4756279989345206,-0.3548468784488449,0.09665927242032507,0.7990736770648827,-0.6590453386306763,-0.6915251612663269,-0.2957234084606171,28739.032665375,unknown,2,2020-03-06 13:31:58.985 +0100,605190721.5570056,0,0.5100002,98.77238
2020-03-06 13:32:03.025 +0100,28743.048877375,-0.629608154296875,-0.694061279296875,-0.3044586181640625,28743.048877375,0.7340377536658591,-1.144659966882111,0.7555673130157344,-0.7346804738044739,-0.3231924772262573,0.01629216596484184,0.0410311222076416,-0.02913373708724976,-0.01058077812194824,XArbitraryZVertical,0.4700669496243859,-0.3586081737427529,0.09391215355512125,0.8010104184539383,-0.6627877950668335,-0.6857017278671265,-0.3008744716644287,28739.032665375,unknown,2,2020-03-06 13:31:58.985 +0100,605190721.5570056,0,0.5100002,98.77238
2020-03-06 13:32:03.027 +0100,28743.058925375,-0.6736297607421875,-0.6458587646484375,-0.265869140625,28743.048877375,0.7340377536658591,-1.144659966882111,0.7555673130157344,-0.7346804738044739,-0.3231924772262573,0.01629216596484184,0.0410311222076416,-0.02913373708724976,-0.01058077812194824,XArbitraryZVertical,0.4700669496243859,-0.3586081737427529,0.09391215355512125,0.8010104184539383,-0.6627877950668335,-0.6857017278671265,-0.3008744716644287,28739.032665375,unknown,2,2020-03-06 13:31:58.985 +0100,605190721.5570056,0,0.5100002,98.77238
2020-03-06 13:32:03.028 +0100,28743.068974375,-0.7399139404296875,-0.6556243896484375,-0.2355804443359375,28743.058925375,0.7261017231994372,-1.142220324234626,0.7530606420034354,-0.5170175433158875,-0.2375217974185944,-0.07238717377185822,0.01808315515518188,0.01527386903762817,0.01523172855377197,XArbitraryZVertical,0.467701469033259,-0.3600741558643216,0.09203131426077205,0.8019551432252908,-0.6636130213737488,-0.6838750243186951,-0.3032038807868958,28739.032665375,unknown,2,2020-03-06 13:31:58.985 +0100,605190721.5570056,0,0.5100002,98.77238
2020-03-06 13:32:03.033 +0100,28743.079022375,-0.781524658203125,-0.72930908203125,-0.285614013671875,28743.068974375,0.7206631565640564,-1.140240628305582,0.7521828679406007,-0.2669301927089691,-0.08924789726734161,-0.1330792754888535,-0.04342019557952881,0.04461669921875,0.06139683723449707,XArbitraryZVertical,0.4663405594881135,-0.3607530216214888,0.090566214348903,0.8026091347742632,-0.6635567545890808,-0.6832343339920044,-0.3047674894332886,28739.032665375,unknown,2,2020-03-06 13:31:58.985 +0100,605190721.5570056,0,0.5100002,98.77238
2020-03-06 13:32:03.043 +0100,28743.089071375,-0.7660369873046875,-0.7650909423828125,-0.3387451171875,28743.079022375,0.7179589652679673,-1.138643638734629,0.7529182186896959,-0.01557368133217096,0.0172431655228138,-0.1815927922725677,-0.1059333086013794,-0.006772220134735107,0.05141186714172363,XArbitraryZVertical,0.4660248233596713,-0.360572767250756,0.08964032492861961,0.8029774008035595,-0.6626127958297729,-0.6837710738182068,-0.3056162893772125,28739.032665375,unknown,2,2020-03-06 13:31:58.985 +0100,605190721.5570056,0,0.5100002,98.77238
2020-03-06 13:32:03.053 +0100,28743.099119375,-0.7269439697265625,-0.7655181884765625,-0.349822998046875,28743.089071375,0.7174419146059104,-1.137795819815758,0.7550053278846025,0.1367343664169312,0.03450098261237144,-0.202984631061554,-0.1184453964233398,-0.07017689943313599,-0.01046985387802124,XArbitraryZVertical,0.4665864180509299,-0.3598720390685753,0.08902718120667474,0.8030338071043253,-0.6610565781593323,-0.6852925419807434,-0.3055784702301025,28739.032665375,unknown,2,2020-03-06 13:31:58.985 +0100,605190721.5570056,0,0.5100002,98.77238
2020-03-06 13:32:03.063 +0100,28743.109168375,-0.686248779296875,-0.7907562255859375,-0.3567047119140625,28743.099119375,0.7181357084179857,-1.137639992237515,0.7578126243017616,0.2110337466001511,0.05105492472648621,-0.2190025448799133,-0.08786261081695557,-0.07857221364974976,-0.04353940486907959,XArbitraryZVertical,0.4676351331953153,-0.359000010490997,0.08853082995314679,0.8028689399601394,-0.6592601537704468,-0.6873342990875244,-0.3048727512359619,28739.032665375,unknown,2,2020-03-06 13:31:58.985 +0100,605190721.5570056,0,0.5100002,98.77238
2020-03-06 13:32:03.073 +0100,28743.119216375,-0.648651123046875,-0.8406982421875,-0.3627166748046875,28743.109168375,0.7194944939534174,-1.1379250486904,0.7611276686241455,0.2540408670902252,0.04847618564963341,-0.2551216781139374,-0.04997634887695312,-0.08483505249023438,-0.04781293869018555,XArbitraryZVertical,0.468988959659792,-0.3580302604259112,0.08805109658513763,0.8025650501068261,-0.6572751402854919,-0.689738392829895,-0.303727388381958,28739.032665375,unknown,2,2020-03-06 13:31:58.985 +0100,605190721.5570056,0,0.5100002,98.77238
2020-03-06 13:32:03.083 +0100,28743.129265375,-0.62603759765625,-0.875762939453125,-0.34625244140625,28743.129265375,0.7226468016043237,-1.139567357743441,0.7684688827668211,0.205177903175354,-0.01915629953145981,-0.2763165831565857,0.01745247840881348,-0.167566180229187,-0.05329102277755737,XArbitraryZVertical,0.4720469932301654,-0.3562445604932616,0.08680417899858225,0.8017022263931749,-0.6531554460525513,-0.6950352191925049,-0.3005228936672211,28739.032665375,unknown,2,2020-03-06 13:31:58.985 +0100,605190721.5570056,0,0.5100002,98.77238
2020-03-06 13:32:03.093 +0100,28743.139313375,-0.6139373779296875,-0.8660888671875,-0.344818115234375,28743.129265375,0.7226468016043237,-1.139567357743441,0.7684688827668211,0.205177903175354,-0.01915629953145981,-0.2763165831565857,0.01745247840881348,-0.167566180229187,-0.05329102277755737,XArbitraryZVertical,0.4720469932301654,-0.3562445604932616,0.08680417899858225,0.8017022263931749,-0.6531554460525513,-0.6950352191925049,-0.3005228936672211,28739.032665375,unknown,2,2020-03-06 13:31:58.985 +0100,605190721.5570056,0,0.5100002,98.77238
2020-03-06 13:32:03.103 +0100,28743.149361375,-0.60858154296875,-0.8175811767578125,-0.3388824462890625,28743.139313375,0.7231784266813179,-1.140500113997595,0.7716962893559498,0.1437714695930481,-0.09234120696783066,-0.2825226485729218,0.03104066848754883,-0.1777312159538269,-0.04818463325500488,XArbitraryZVertical,0.4732439540019547,-0.3557415239344064,0.08586142666268951,0.8013213521954996,-0.6513933539390564,-0.6973519921302795,-0.2989762425422668,28739.032665375,unknown,2,2020-03-06 13:31:58.985 +0100,605190721.5570056,0,0.5100002,98.77238
2020-03-06 13:32:03.113 +0100,28743.159410375,-0.615631103515625,-0.7452850341796875,-0.327880859375,28743.149361375,0.7235351682614591,-1.14203075524384,0.7749276307835828,0.1768218278884888,-0.1385646313428879,-0.2971628606319427,0.04026323556900024,-0.1461830735206604,-0.04516124725341797,XArbitraryZVertical,0.474434043348821,-0.3555166803405324,0.08470424230378262,0.800840416224528,-0.6497973799705505,-0.6996643543243408,-0.2970404624938965,28739.032665375,unknown,2,2020-03-06 13:31:58.985 +0100,605190721.5570056,0,0.5100002,98.77238
2020-03-06 13:32:03.124 +0100,28743.169458375,-0.6168975830078125,-0.687286376953125,-0.2930450439453125,28743.159410375,0.7249170357104289,-1.144398238295189,0.7785650926404352,0.3087975680828094,-0.1240189746022224,-0.2976369559764862,0.03740733861923218,-0.07944077253341675,-0.04049205780029297,XArbitraryZVertical,0.4759711457873939,-0.3552859805736758,0.08363803306003167,0.8001424544223268,-0.6481773853302002,-0.7022585868835449,-0.2944466769695282,28739.032665375,unknown,2,2020-03-06 13:31:58.985 +0100,605190721.5570056,0,0.5100002,98.77238
2020-03-06 13:32:03.133 +0100,28743.179507375,-0.608306884765625,-0.6620635986328125,-0.26800537109375,28743.169458375,0.7281345469546816,-1.147738418441083,0.7828802259549736,0.4510060846805573,-0.08335436880588531,-0.3140550851821899,0.02940768003463745,-0.008992612361907959,-0.02107816934585571,XArbitraryZVertical,0.4780903405704687,-0.3548422449206076,0.08287148040262816,0.7991551285865484,-0.6463881134986877,-0.705324113368988,-0.2910332083702087,28739.032665375,unknown,2,2020-03-06 13:31:58.985 +0100,605190721.5570056,0,0.5100002,98.77238
2020-03-06 13:32:03.144 +0100,28743.189555375,-0.59698486328125,-0.6656646728515625,-0.2418212890625,28743.179507375,0.7323983014678178,-1.151379003394235,0.7879328900920136,0.5042863488197327,-0.0471961610019207,-0.3699690699577332,0.03141117095947266,0.03963923454284668,0.01386910676956177,XArbitraryZVertical,0.4806384401107732,-0.3540835184895714,0.08222640288167421,0.7980290320644389,-0.6441801786422729,-0.708896815776825,-0.2872231006622314,28739.032665375,unknown,2,2020-03-06 13:31:58.985 +0100,605190721.5570056,0,0.5100002,98.77238
2020-03-06 13:32:03.154 +0100,28743.199604375,-0.592681884765625,-0.695526123046875,-0.1798553466796875,28743.189555375,0.7366306821124924,-1.154708387374925,0.7937260112540443,0.5090568661689758,-0.02398058585822582,-0.4410128891468048,0.03939998149871826,0.05466902256011963,0.01626849174499512,XArbitraryZVertical,0.4833960063371994,-0.3530187412008849,0.0814157936560141,0.7969174991399665,-0.6413657665252686,-0.7129708528518677,-0.2834121286869049,28739.032665375,unknown,2,2020-03-06 13:31:58.985 +0100,605190721.5570056,0,0.5100002,98.77238
2020-03-06 13:32:03.164 +0100,28743.209652375,-0.59637451171875,-0.7192840576171875,-0.153045654296875,28743.199604375,0.7405041663814586,-1.157606201912063,0.7999583917974296,0.4838383197784424,-0.01290449872612953,-0.4558680057525635,0.04433071613311768,0.0368390679359436,0.0741729736328125,XArbitraryZVertical,0.4862005543608785,-0.3517494164519379,0.08042674675996168,0.7958724204478589,-0.6381023526191711,-0.7173271179199219,-0.2797627449035645,28739.032665375,unknown,2,2020-03-06 13:31:58.985 +0100,605190721.5570056,0,0.5100002,98.77238
2020-03-06 13:32:03.177 +0100,28743.219701375,-0.600311279296875,-0.7401275634765625,-0.185028076171875,28743.209652375,0.7439037267409827,-1.16014863763477,0.8059614475389021,0.4372937381267548,-0.02359788864850998,-0.4245689511299133,0.04152274131774902,0.01224589347839355,0.1155185699462891,XArbitraryZVertical,0.4888205972426452,-0.3504949507296909,0.07939322575468842,0.794924102736713,-0.63485187292099,-0.7214967012405396,-0.2764154374599457,28739.032665375,unknown,2,2020-03-06 13:31:58.985 +0100,605190721.5570056,0,0.5100002,98.77238
2020-03-06 13:32:03.184 +0100,28743.229749375,-0.5797119140625,-0.75775146484375,-0.2185211181640625,28743.229749375,0.7514769064385052,-1.166632926447775,0.8179157057661256,0.5778685808181763,-0.1004337295889854,-0.4386283159255981,0.03616577386856079,-0.01976603269577026,0.06204092502593994,XArbitraryZVertical,0.4941952872387422,-0.3483246273014461,0.07727662716033815,0.7927604914688287,-0.6286554932594299,-0.7297223210334778,-0.2688819468021393,28739.032665375,unknown,2,2020-03-06 13:31:58.985 +0100,605190721.5570056,0,0.5100002,98.77238
2020-03-06 13:32:03.196 +0100,28743.239798375,-0.5593109130859375,-0.7543487548828125,-0.2249603271484375,28743.229749375,0.7514769064385052,-1.166632926447775,0.8179157057661256,0.5778685808181763,-0.1004337295889854,-0.4386283159255981,0.03616577386856079,-0.01976603269577026,0.06204092502593994,XArbitraryZVertical,0.4941952872387422,-0.3483246273014461,0.07727662716033815,0.7927604914688287,-0.6286554932594299,-0.7297223210334778,-0.2688819468021393,28739.032665375,unknown,2,2020-03-06 13:31:58.985 +0100,605190721.5570056,0,0.5100002,98.77238
2020-03-06 13:32:03.203 +0100,28743.249846375,-0.5491790771484375,-0.76513671875,-0.222412109375,28743.239798375,0.7576335438737124,-1.172178184388136,0.8242649840924617,0.6878824830055237,-0.1190294101834297,-0.3757748603820801,0.05754971504211426,-0.02418273687362671,0.03817713260650635,XArbitraryZVertical,0.497478262059356,-0.3474497640541109,0.07645690597496993,0.7911689430735016,-0.6258541941642761,-0.7340488433837891,-0.2635880708694458,28739.032665375,unknown,2,2020-03-06 13:31:58.985 +0100,605190721.5570056,0,0.5100002,98.77238
2020-03-06 13:32:03.214 +0100,28743.259895375,-0.541259765625,-0.7698822021484375,-0.248687744140625,28743.249846375,0.7651968793460736,-1.17891866043928,0.8301243164513199,0.7125718593597412,-0.1310349404811859,-0.3206993639469147,0.07011240720748901,-0.01798844337463379,0.03746294975280762,XArbitraryZVertical,0.5008778783968261,-0.3467897264771323,0.07601793646106758,0.7893538290046199,-0.6236310005187988,-0.7380152344703674,-0.2577164769172668,28739.032665375,unknown,2,2020-03-06 13:31:58.985 +0100,605190721.5570056,0,0.5100002,98.77238
2020-03-06 13:32:03.224 +0100,28743.269943375,-0.5389404296875,-0.7418670654296875,-0.27435302734375,28743.259895375,0.7728505548745014,-1.18627942747727,0.8357722197138977,0.6792365908622742,-0.2227426618337631,-0.3645777106285095,0.07615995407104492,-0.03051608800888062,0.01675647497177124,XArbitraryZVertical,0.5042316857337032,-0.346373558123428,0.07549513786698255,0.7874491516537651,-0.621637225151062,-0.7418146133422852,-0.2515515387058258,28739.032665375,unknown,2,2020-03-06 13:31:58.985 +0100,605190721.5570056,0,0.5100002,98.77238
2020-03-06 13:32:03.234 +0100,28743.279992375,-0.525360107421875,-0.67645263671875,-0.2739715576171875,28743.269943375,0.7796846007630163,-1.194156711746678,0.8417160956932823,0.6274213194847107,-0.3425612151622772,-0.4080202877521515,0.07974833250045776,-0.01421427726745605,-0.01633960008621216,XArbitraryZVertical,0.5075340794742984,-0.3462639127221949,0.07440225831459978,0.7854773890190654,-0.6194882988929749,-0.7457874417304993,-0.2450209259986877,28739.032665375,unknown,2,2020-03-06 13:31:58.985 +0100,605190721.5570056,0,0.5100002,98.77238
2020-03-06 13:32:03.244 +0100,28743.290040375,-0.5086517333984375,-0.589813232421875,-0.27325439453125,28743.279992375,0.7861343592633454,-1.203064740822927,0.8474264047529643,0.5745930075645447,-0.4615810811519623,-0.3444112539291382,0.08274412155151367,0.03520143032073975,-0.04273527860641479,XArbitraryZVertical,0.5107155334489744,-0.3466852517459693,0.07293770252336702,0.7833639165382009,-0.617662250995636,-0.7495793700218201,-0.2379579544067383,28739.032665375,unknown,2,2020-03-06 13:31:58.985 +0100,605190721.5570056,0,0.5100002,98.77238
2020-03-06 13:32:03.254 +0100,28743.300089375,-0.5119781494140625,-0.53369140625,-0.260406494140625,28743.290040375,0.792518201689477,-1.213144501709308,0.8523093411662992,0.5339595675468445,-0.5707012414932251,-0.2791821956634521,0.1017101407051086,0.1202880144119263,-0.03849279880523682,XArbitraryZVertical,0.513657701799219,-0.3477610953208575,0.07136835900534069,0.7811046162755889,-0.6165934205055237,-0.7528025507926941,-0.2304359674453735,28739.032665375,unknown,2,2020-03-06 13:31:58.985 +0100,605190721.5570056,0,0.5100002,98.77238
2020-03-06 13:32:03.264 +0100,28743.310137375,-0.524261474609375,-0.5629119873046875,-0.2238922119140625,28743.300089375,0.7985821440613242,-1.223869863519998,0.8569434682818423,0.5188314318656921,-0.6362650394439697,-0.3271091878414154,0.1077252626419067,0.2017909288406372,-0.05048841238021851,XArbitraryZVertical,0.5164735635427676,-0.3492054999010447,0.06955344013832293,0.7787636915114867,-0.6157421469688416,-0.7558448314666748,-0.2226211577653885,28739.032665375,unknown,2,2020-03-06 13:31:58.985 +0100,605190721.5570056,0,0.5100002,98.77238
2020-03-06 13:32:03.274 +0100,28743.320186375,-0.548797607421875,-0.6499481201171875,-0.1786956787109375,28743.310137375,0.8039894115598445,-1.234685137987827,0.862246853641749,0.502695620059967,-0.7025354504585266,-0.4314062893390656,0.09737765789031982,0.2229222655296326,-0.02857846021652222,XArbitraryZVertical,0.5193543696300512,-0.350655344380193,0.06722300048307182,0.77639742357425,-0.6143209338188171,-0.7593066096305847,-0.2146237343549728,28739.032665375,unknown,2,2020-03-06 13:31:58.985 +0100,605190721.5570056,0,0.5100002,98.77238
2020-03-06 13:32:03.284 +0100,28743.330234375,-0.577789306640625,-0.7061309814453125,-0.1014556884765625,28743.320186375,0.8092332202701485,-1.246077483987408,0.868199691834635,0.5115291476249695,-0.763714611530304,-0.449675440788269,0.07823038101196289,0.1578738689422607,0.0003015995025634766,XArbitraryZVertical,0.5223887082022933,-0.3521749881888894,0.06444534598999435,0.7739054058289535,-0.6124312877655029,-0.7631667852401733,-0.2061656266450882,28739.032665375,unknown,2,2020-03-06 13:31:58.985 +0100,605190721.5570056,0,0.5100002,98.77238
2020-03-06 13:32:03.295 +0100,28743.340282375,-0.6039581298828125,-0.7144622802734375,-0.0211029052734375,28743.330234375,0.8139076329994476,-1.257474635122384,0.8733178305431691,0.353259414434433,-0.7933454513549805,-0.3161152303218842,0.04704660177230835,0.08084887266159058,0.05888980627059937,XArbitraryZVertical,0.5250515281029179,-0.3540309656786086,0.0616726538286647,0.7714787658655111,-0.6110174059867859,-0.7664641737937927,-0.1979659348726273,28739.032665375,unknown,2,2020-03-06 13:31:58.985 +0100,605190721.5570056,0,0.5100002,98.77238
2020-03-06 13:32:03.304 +0100,28743.350331375,-0.6222076416015625,-0.716400146484375,0.05889892578125,28743.340282375,0.8162220919306392,-1.267338559554084,0.8764647763004344,0.1314969807863235,-0.8061237335205078,-0.2028228640556335,0.02000755071640015,0.05501914024353027,0.1227338314056396,XArbitraryZVertical,0.5266607181533061,-0.3564052185954356,0.05898523551057383,0.7694962421462276,-0.6106353402137756,-0.7684816122055054,-0.191207617521286,28739.032665375,unknown,2,2020-03-06 13:31:58.985 +0100,605190721.5570056,0,0.5100002,98.77238
2020-03-06 13:32:03.314 +0100,28743.360379375,-0.602752685546875,-0.7242279052734375,0.045989990234375,28743.350331375,0.815841383654437,-1.274819475774579,0.8783044536730518,-0.07220394909381866,-0.734002947807312,-0.1636437773704529,-0.004834771156311035,0.05500483512878418,0.2193713188171387,XArbitraryZVertical,0.5273313267505674,-0.3589023614851541,0.05628919021870748,0.7680769733779408,-0.6106953620910645,-0.7696574330329895,-0.1862215399742126,28739.032665375,unknown,2,2020-03-06 13:31:58.985 +0100,605190721.5570056,0,0.5100002,98.77238
2020-03-06 13:32:03.324 +0100,28743.370428375,-0.5711212158203125,-0.6885833740234375,0.03948974609375,28743.360379375,0.8130868183810531,-1.279822795617597,0.8792343780071863,-0.1892649084329605,-0.6944757103919983,-0.1097874045372009,-0.008136630058288574,0.04860973358154297,0.2396219372749329,XArbitraryZVertical,0.5272363754511549,-0.3613068769675337,0.05361960334399774,0.7672053149669693,-0.6109335422515869,-0.7702508568763733,-0.1829582899808884,28739.032665375,unknown,2,2020-03-06 13:31:58.985 +0100,605190721.5570056,0,0.5100002,98.77238
2020-03-06 13:32:03.334 +0100,28743.380476375,-0.572967529296875,-0.6525726318359375,0.0026397705078125,28743.370428375,0.8092496946074814,-1.28382272749451,0.8792691534144422,-0.2791742980480194,-0.6831029653549194,-0.03820190206170082,0.02823972702026367,0.05711579322814941,0.2214373350143433,XArbitraryZVertical,0.5266552818086441,-0.3638425847648813,0.05108342808860954,0.7665789125081236,-0.6116347908973694,-0.7702730298042297,-0.1805055737495422,28739.032665375,unknown,2,2020-03-06 13:31:58.985 +0100,605190721.5570056,0,0.5100002,98.77238
2020-03-06 13:32:03.344 +0100,28743.390525375,-0.592529296875,-0.6416015625,-0.0555572509765625,28743.380476375,0.8046555416008027,-1.286942486919314,0.8787735819528393,-0.289409726858139,-0.6429157853126526,-0.0405912883579731,0.04460805654525757,0.104468047618866,0.2090151309967041,XArbitraryZVertical,0.5257541393523835,-0.3663753310247013,0.04865892620813179,0.7661487431979438,-0.6125612854957581,-0.7699568867683411,-0.1787033975124359,28739.032665375,unknown,2,2020-03-06 13:31:58.985 +0100,605190721.5570056,0,0.5100002,98.77238
2020-03-06 13:32:03.354 +0100,28743.400573375,-0.6280364990234375,-0.654083251953125,-0.1025238037109375,28743.390525375,0.8005295114789059,-1.290081713278366,0.8785334739989729,-0.2302380204200745,-0.612990140914917,-0.05476836115121841,0.03136670589447021,0.1245938539505005,0.1436352729797363,XArbitraryZVertical,0.5250024074503209,-0.3687235715919685,0.04633023946181257,0.76568196928815,-0.6132969260215759,-0.7698036432266235,-0.1768307983875275,28739.032665375,unknown,2,2020-03-06 13:31:58.985 +0100,605190721.5570056,0,0.5100002,98.77238
2020-03-06 13:32:03.364 +0100,28743.410622375,-0.661102294921875,-0.695770263671875,-0.173431396484375,28743.400573375,0.7971674922357567,-1.293543415185567,0.8784305869955074,-0.187129482626915,-0.5974448323249817,-0.04382583126425743,0.005897760391235352,0.1257030367851257,0.1024553775787354,XArbitraryZVertical,0.5244298696032803,-0.3709570272574976,0.04416801735263219,0.7651231329293051,-0.6139816641807556,-0.7697379589080811,-0.1747283935546875,28739.032665375,unknown,2,2020-03-06 13:31:58.985 +0100,605190721.5570056,0,0.5100002,98.77238
