loggingTime(txt),accelerometerTimestamp_sinceReboot(s),accelerometerAccelerationX(G),accelerometerAccelerationY(G),accelerometerAccelerationZ(G),motionTimestamp_sinceReboot(s),motionYaw(rad),motionRoll(rad),motionPitch(rad),motionRotationRateX(rad/s),motionRotationRateY(rad/s),motionRotationRateZ(rad/s),motionUserAccelerationX(G),motionUserAccelerationY(G),motionUserAccelerationZ(G),motionAttitudeReferenceFrame(txt),motionQuaternionX(R),motionQuaternionY(R),motionQuaternionZ(R),motionQuaternionW(R),motionGravityX(G),motionGravityY(G),motionGravityZ(G),activityTimestamp_sinceReboot(s),activity(txt),activityActivityConfidence(Z),activityActivityStartDate(txt),altimeterTimestamp_sinceReboot(s),altimeterReset(bool),altimeterRelativeAltitude(m),altimeterPressure(kPa)
2020-03-06 13:47:46.946 +0100,29288.570254625,0.029693603515625,0.47418212890625,-0.8296356201171875,29288.550155625,0.873419124846734,-0.03776540806758755,-0.3165538245881758,-0.02777573466300964,-0.06825245916843414,-0.07472735643386841,0.1102516800165176,0.1229268312454224,0.09035295248031616,XArbitraryZVertical,-0.1349124818100087,-0.08354942401026924,0.4202955601938798,0.8934034873885928,-0.03588045760989189,0.3112934529781342,-0.9496362209320068,29286.441947125,unknown,2,2020-03-06 13:47:44.787 +0100,605191665.5698276,0,-8.87,98.78629
2020-03-06 13:47:46.959 +0100,29288.590353625,-0.064239501953125,0.467742919921875,-0.9148712158203125,29288.570254625,0.8728272530116972,-0.03841777353783943,-0.3179074170917497,0.02519111707806587,-0.05241591110825539,0.0394173264503479,0.09786973148584366,0.1639991700649261,0.1251857280731201,XArbitraryZVertical,-0.1354066071756183,-0.08408151873508743,0.4200416031432777,0.893398234857866,-0.03648374229669571,0.3125795125961304,-0.9491906762123108,29286.441947125,unknown,2,2020-03-06 13:47:44.787 +0100,605191665.5698276,0,-8.87,98.78629
2020-03-06 13:47:46.960 +0100,29288.610452625,-0.0631866455078125,0.3536529541015625,-0.9303436279296875,29288.590353625,0.8747135540151716,-0.03789096274756284,-0.3152020542899908,0.348891407251358,-0.02903147786855698,0.04707973822951317,-0.01311781257390976,0.1774801015853882,0.05426901578903198,XArbitraryZVertical,-0.1342265682499549,-0.083411965652591,0.4209157299572417,0.8932276362869479,-0.0360155962407589,0.3100085854530334,-0.9500513672828674,29286.441947125,unknown,2,2020-03-06 13:47:44.787 +0100,605191665.5698276,0,-8.87,98.78629
2020-03-06 13:47:46.977 +0100,29288.630551625,0.058746337890625,0.39886474609375,-0.931610107421875,29288.610452625,0.8757898456396341,-0.03632056279313734,-0.3088456349208122,0.3095168471336365,0.1632378399372101,0.04202596098184586,-0.02804297208786011,0.05083906650543213,0.029571533203125,XArbitraryZVertical,-0.1316657923620619,-0.08146001939983516,0.421448601600692,0.8935375926825735,-0.03459445014595985,0.3039591014385223,-0.9520567655563354,29286.441947125,unknown,2,2020-03-06 13:47:44.787 +0100,605191665.5698276,0,-8.87,98.78629
2020-03-06 13:47:46.997 +0100,29288.650649625,0.0464019775390625,0.3648529052734375,-0.8855133056640625,29288.630551625,0.8759892517865726,-0.03296742892542356,-0.3026147975313894,0.3835384845733643,0.09870146960020065,-0.04478290677070618,0.0621948167681694,0.104525625705719,0.01042318344116211,XArbitraryZVertical,-0.1295728521208339,-0.07867637925713311,0.4214715863760235,0.894081918026621,-0.03146370500326157,0.2980172038078308,-0.9540417790412903,29286.441947125,unknown,2,2020-03-06 13:47:44.787 +0100,605191665.5698276,0,-8.87,98.78629
2020-03-06 13:47:47.017 +0100,29288.670748625,0.004486083984375,0.34942626953125,-0.85736083984375,29288.650649625,0.8758608331556585,-0.03028258593144072,-0.298130083541923,0.182007759809494,0.1004889607429504,-0.03068343177437782,0.08321774750947952,0.08058071136474609,0.06201666593551636,XArbitraryZVertical,-0.1281336898167482,-0.07653222275365539,0.421351709685192,0.8945318211928157,-0.02894231863319874,0.2937332987785339,-0.9554491639137268,29286.441947125,unknown,2,2020-03-06 13:47:44.787 +0100,605191665.5698276,0,-8.87,98.78629
2020-03-06 13:47:47.037 +0100,29288.690847625,-0.0303497314453125,0.3291168212890625,-0.8160400390625,29288.670748625,0.8743055065495656,-0.02953734476496551,-0.2963613880959408,0.1132570207118988,0.02463700249791145,-0.1219270899891853,0.03917078673839569,0.06087911128997803,0.08509302139282227,XArbitraryZVertical,-0.1275568178316248,-0.07573062384250139,0.4206518677338142,0.8950117543544367,-0.02824557013809681,0.2920421659946442,-0.9559882879257202,29286.441947125,unknown,2,2020-03-06 13:47:44.787 +0100,605191665.5698276,0,-8.87,98.78629
2020-03-06 13:47:47.057 +0100,29288.710946625,-0.0790252685546875,0.3029632568359375,-0.7860260009765625,29288.690847625,0.8712074856518288,-0.03058024336455957,-0.2956116248903528,-0.008012795820832253,-0.00909616332501173,-0.1552351117134094,0.0050639808177948,0.04688680171966553,0.1294558048248291,XArbitraryZVertical,-0.1271188519192096,-0.07584430296649643,0.4193496741965832,0.8956753022723368,-0.02924923971295357,0.2913250029087067,-0.9561768770217896,29286.441947125,unknown,2,2020-03-06 13:47:44.787 +0100,605191665.5698276,0,-8.87,98.78629
2020-03-06 13:47:47.077 +0100,29288.731044625,-0.1276092529296875,0.2751007080078125,-0.795196533203125,29288.710946625,0.8684940457207502,-0.0313427260651955,-0.2971586844959028,-0.08009885996580124,0.01720708049833775,-0.08828330785036087,-0.03252070397138596,0.01772779226303101,0.1662740707397461,XArbitraryZVertical,-0.1277569283099417,-0.07633366431489033,0.4181454115818811,0.8961058516432409,-0.02996413968503475,0.2928045988082886,-0.9557026624679565,29286.441947125,unknown,2,2020-03-06 13:47:44.787 +0100,605191665.5698276,0,-8.87,98.78629
2020-03-06 13:47:47.097 +0100,29288.751143625,-0.126922607421875,0.2181396484375,-0.777496337890625,29288.731044625,0.867248258968629,-0.03052041649013586,-0.2977155119310979,0.02494108118116856,0.0817885547876358,-0.07769624888896942,-0.08792278915643692,-0.0177471935749054,0.1592230796813965,XArbitraryZVertical,-0.1282262253266448,-0.07600061946413134,0.4175210474354132,0.8963582353427487,-0.02917326614260674,0.2933369874954224,-0.9555639028549194,29286.441947125,unknown,2,2020-03-06 13:47:44.787 +0100,605191665.5698276,0,-8.87,98.78629
2020-03-06 13:47:47.117 +0100,29288.771242625,-0.109893798828125,0.200286865234375,-0.7571563720703125,29288.751143625,0.8655204884953172,-0.02930734875287561,-0.2982094034618281,-0.08029908686876297,0.1396560966968536,-0.05576531589031219,-0.09370961785316467,-0.07560756802558899,0.1727389097213745,XArbitraryZVertical,-0.1287664795758117,-0.07544783360472644,0.4166565315895899,0.8967296731299091,-0.02800983190536499,0.2938091158866882,-0.955453634262085,29286.441947125,unknown,2,2020-03-06 13:47:44.787 +0100,605191665.5698276,0,-8.87,98.78629
2020-03-06 13:47:47.138 +0100,29288.791341625,-0.078857421875,0.2018585205078125,-0.717437744140625,29288.771242625,0.8648306783353676,-0.02571527136206847,-0.3007472325264107,-0.1881942451000214,0.2459774613380432,-0.009887772612273693,-0.08634262531995773,-0.08723348379135132,0.1897851228713989,XArbitraryZVertical,-0.130680215785504,-0.07431603455505188,0.4160505643226729,0.8968286628232788,-0.02455834485590458,0.2962339818477631,-0.9547995924949646,29286.441947125,unknown,2,2020-03-06 13:47:44.787 +0100,605191665.5698276,0,-8.87,98.78629
2020-03-06 13:47:47.158 +0100,29288.811440625,-0.0507049560546875,0.21136474609375,-0.66436767578125,29288.791341625,0.865220657665586,-0.01889454090505253,-0.3063656876495734,-0.3629638254642487,0.3927023708820343,0.0587112233042717,-0.066916823387146,-0.1088761389255524,0.227069616317749,XArbitraryZVertical,-0.1346071096246248,-0.0724433500117022,0.4156231257919948,0.8965993300501438,-0.01801366358995438,0.301595538854599,-0.9532657861709595,29286.441947125,unknown,2,2020-03-06 13:47:44.787 +0100,605191665.5698276,0,-8.87,98.78629
2020-03-06 13:47:47.178 +0100,29288.831538625,-0.0758514404296875,0.1237640380859375,-0.5732269287109375,29288.811440625,0.867265580771866,-0.009327450338275792,-0.3152988060875795,-0.5388771295547485,0.4894952178001404,0.1687346696853638,-0.04842928051948547,-0.09282976388931274,0.2688540816307068,XArbitraryZVertical,-0.140529577309343,-0.07014439764314756,0.4156195334100841,0.8958747415308573,-0.008867513388395309,0.3101005554199219,-0.95066237449646,29286.441947125,unknown,2,2020-03-06 13:47:44.787 +0100,605191665.5698276,0,-8.87,98.78629
2020-03-06 13:47:47.198 +0100,29288.851637625,-0.1043243408203125,0.177276611328125,-0.5466461181640625,29288.831538625,0.8724454697358973,0.003629883647516367,-0.3289444872037464,-0.8464909791946411,0.6467985510826111,0.3566129207611084,-0.07507528364658356,-0.1790156960487366,0.3512086868286133,XArbitraryZVertical,-0.1491551729043079,-0.06755686974993745,0.4165470061559871,0.8942467746777254,0.003435255726799369,0.3230443000793457,-0.9463776350021362,29286.441947125,unknown,2,2020-03-06 13:47:44.787 +0100,605191665.5698276,0,-8.87,98.78629
2020-03-06 13:47:47.218 +0100,29288.871736625,-0.13470458984375,0.2021026611328125,-0.726806640625,29288.851637625,0.8836204115156145,0.02338014248469214,-0.3498088753132979,-1.138941884040833,0.9020842909812927,0.4967786967754364,-0.09421253949403763,-0.193242222070694,0.4064821004867554,XArbitraryZVertical,-0.1622163385008166,-0.06399312270865345,0.4191854583025649,0.890996226422578,0.02196219936013222,0.3427182734012604,-0.9391815066337585,29286.441947125,unknown,2,2020-03-06 13:47:44.787 +0100,605191665.5698276,0,-8.87,98.78629
2020-03-06 13:47:47.238 +0100,29288.891835625,0.084228515625,0.412384033203125,-0.9049224853515625,29288.871736625,0.8940197035381391,0.04475213021117038,-0.3670789856520869,-0.4068869054317474,0.9852483868598938,0.577928900718689,-0.1880274564027786,-0.1754026710987091,0.2593801617622375,XArbitraryZVertical,-0.1740459985601436,-0.05903747282131391,0.421221956884441,0.8881410502687391,0.04175678640604019,0.358890563249588,-0.9324451088905334,29286.441947125,unknown,2,2020-03-06 13:47:44.787 +0100,605191665.5698276,0,-8.87,98.78629
2020-03-06 13:47:47.258 +0100,29288.911933625,0.106903076171875,0.27667236328125,-0.9005126953125,29288.891835625,0.9060571941328542,0.06924361114320017,-0.3664298818862083,0.3289964199066162,0.9754707813262939,0.489949107170105,-0.02364030480384827,0.02176707983016968,0.04964619874954224,XArbitraryZVertical,-0.1786120402890856,-0.04909355146604705,0.4244367256523063,0.8863075601808539,0.0645950511097908,0.3582846224308014,-0.9313751459121704,29286.441947125,unknown,2,2020-03-06 13:47:44.787 +0100,605191665.5698276,0,-8.87,98.78629
2020-03-06 13:47:47.278 +0100,29288.932032625,0.08245849609375,0.052734375,-0.8697357177734375,29288.911933625,0.9150307373573575,0.09247534255229531,-0.3573165542079601,0.3991236388683319,1.035504341125488,0.4012407064437866,0.03859596699476242,-0.0249161422252655,0.02358007431030273,XArbitraryZVertical,-0.1793539294960237,-0.03760651842107082,0.4268557858573606,0.8855574575332894,0.08651106059551239,0.3497615456581116,-0.9328358173370361,29286.441947125,unknown,2,2020-03-06 13:47:44.787 +0100,605191665.5698276,0,-8.87,98.78629
2020-03-06 13:47:47.298 +0100,29288.952131625,0.1420135498046875,-0.069305419921875,-0.7334747314453125,29288.932032625,0.9224959541532287,0.1162184165573628,-0.348926297467104,0.3720130026340485,1.046408653259277,0.4219222664833069,-0.02310796082019806,-0.2444148361682892,0.04970377683639526,XArbitraryZVertical,-0.1806331680774027,-0.0259060213764639,0.4285426368227446,0.8849020839239885,0.1089694425463676,0.3418889939785004,-0.9334010481834412,29286.441947125,unknown,2,2020-03-06 13:47:44.787 +0100,605191665.5698276,0,-8.87,98.78629
2020-03-06 13:47:47.318 +0100,29288.972230625,0.1232757568359375,-0.136199951171875,-0.6016998291015625,29288.952131625,0.9361728288630744,0.1414285559406857,-0.3440993784074119,-0.1907768696546555,0.9836112856864929,0.9248074293136597,-0.004276245832443237,-0.393393486738205,0.1629683375358582,XArbitraryZVertical,-0.183812227518691,-0.01492558356494,0.4326119926444138,0.8825174984694069,0.1326945722103119,0.337348997592926,-0.9319806098937988,29286.441947125,unknown,2,2020-03-06 13:47:44.787 +0100,605191665.5698276,0,-8.87,98.78629
2020-03-06 13:47:47.338 +0100,29288.992329625,0.1099090576171875,-0.2689971923828125,-0.4647369384765625,29288.972230625,0.9587777737351229,0.1698131632546206,-0.3519854891292846,-0.8625539541244507,1.095058083534241,1.004273176193237,-0.03513184189796448,-0.458484947681427,0.2918877005577087,XArbitraryZVertical,-0.1933006373365278,-0.006382189924312422,0.4393021593240846,0.8772729094507197,0.1586369276046753,0.3447622358798981,-0.9251882433891296,29286.441947125,unknown,2,2020-03-06 13:47:44.787 +0100,605191665.5698276,0,-8.87,98.78629
2020-03-06 13:47:47.359 +0100,29289.012427625,0.2071533203125,-0.3189239501953125,-0.318450927734375,29288.992329625,0.9888575987646818,0.2055733991616569,-0.3692900190841274,-1.350566267967224,1.486160278320312,1.587397336959839,-0.06893700361251831,-0.5869197845458984,0.4143362641334534,XArbitraryZVertical,-0.2086187391622601,0.002119909022179574,0.4474185901638315,0.8696495365819452,0.1903669536113739,0.3609534204006195,-0.9129474759101868,29286.441947125,unknown,2,2020-03-06 13:47:44.787 +0100,605191665.5698276,0,-8.87,98.78629
2020-03-06 13:47:47.379 +0100,29289.032526625,0.300506591796875,-0.1993255615234375,-0.181488037109375,29289.012427625,1.040654637624512,0.25925783939339,-0.3940849821894252,-2.239809036254883,1.902892231941223,2.42719030380249,-0.06581352651119232,-0.6978051662445068,0.5368388891220093,XArbitraryZVertical,-0.2314588490407642,0.0134751688616566,0.4614961603029678,0.8563097685826464,0.2367125749588013,0.3839634656906128,-0.8924904465675354,29286.441947125,unknown,2,2020-03-06 13:47:44.787 +0100,605191665.5698276,0,-8.87,98.78629
2020-03-06 13:47:47.399 +0100,29289.052625625,0.5020294189453125,-0.1099700927734375,-0.12261962890625,29289.032526625,1.112261392361713,0.3305838166363784,-0.4329966318712806,-3.332830429077148,2.367051362991333,2.577569961547852,-0.01311367750167847,-0.6729942560195923,0.6440854668617249,XArbitraryZVertical,-0.2647870154600945,0.02462848090551115,0.4785344881826927,0.8368309084572828,0.2946391999721527,0.4195927679538727,-0.8585625290870667,29286.441947125,unknown,2,2020-03-06 13:47:44.787 +0100,605191665.5698276,0,-8.87,98.78629
2020-03-06 13:47:47.419 +0100,29289.072724625,0.7584686279296875,-0.0652313232421875,-0.09661865234375,29289.052625625,1.198842181666067,0.4202916359178261,-0.4822434099348504,-3.985732316970825,2.709713220596313,2.983691692352295,0.07153615355491638,-0.5743468999862671,0.67665034532547,XArbitraryZVertical,-0.3071057179702646,0.03549831649926624,0.4946630300236137,0.8122403548052954,0.3614940345287323,0.4637679159641266,-0.8088518977165222,29286.441947125,unknown,2,2020-03-06 13:47:44.787 +0100,605191665.5698276,0,-8.87,98.78629
2020-03-06 13:47:47.439 +0100,29289.092822625,1.044326782226562,0.0135498046875,-0.0466156005859375,29289.072724625,1.312780185783158,0.5318064482965735,-0.5261127644298019,-4.450550079345703,2.895269870758057,3.768087387084961,0.262185126543045,-0.5876079797744751,0.6396534442901611,XArbitraryZVertical,-0.3536068729245716,0.04790280091435491,0.5144260243164531,0.7797649493637807,0.4385150074958801,0.5021755695343018,-0.7453349828720093,29286.441947125,unknown,2,2020-03-06 13:47:44.787 +0100,605191665.5698276,0,-8.87,98.78629
2020-03-06 13:47:47.459 +0100,29289.112921625,1.407699584960938,0.0923919677734375,-0.0150604248046875,29289.092822625,1.452143560996269,0.6647261961259961,-0.5600081430530764,-5.07106351852417,3.128378391265869,4.12455415725708,0.4394164681434631,-0.5334649682044983,0.608449399471283,XArbitraryZVertical,-0.4035400631135827,0.06104041698663732,0.5357321662004659,0.7392025988442577,0.5226212739944458,0.5311930775642395,-0.666858971118927,29286.441947125,unknown,2,2020-03-06 13:47:44.787 +0100,605191665.5698276,0,-8.87,98.78629
2020-03-06 13:47:47.479 +0100,29289.133020625,1.882186889648438,0.280914306640625,-0.002899169921875,29289.112921625,1.617178006456199,0.8180948957008878,-0.5821982917452517,-5.908098697662354,3.204988718032837,4.603253364562988,0.7008805274963379,-0.4907318353652954,0.5528656244277954,XArbitraryZVertical,-0.457416994300629,0.07262136822788293,0.556895889708661,0.6894655105648336,0.6096071600914001,0.5498613715171814,-0.5709916353225708,29286.441947125,unknown,2,2020-03-06 13:47:44.787 +0100,605191665.5698276,0,-8.87,98.78629
2020-03-06 13:47:47.500 +0100,29289.153119625,2.520462036132812,0.507293701171875,-0.0455780029296875,29289.133020625,1.810867261962251,0.9889769136184199,-0.5830644415176368,-6.758577346801758,3.130301952362061,5.291928768157959,1.05577826499939,-0.3220825791358948,0.4515940546989441,XArbitraryZVertical,-0.5137785294785138,0.08159198141275212,0.5790293679654522,0.6277733695625221,0.697428286075592,0.5505846738815308,-0.4587487280368805,29286.441947125,unknown,2,2020-03-06 13:47:44.787 +0100,605191665.5698276,0,-8.87,98.78629
2020-03-06 13:47:47.520 +0100,29289.173218625,3.15765380859375,0.6710662841796875,-0.2407684326171875,29289.153119625,2.024127992659292,1.164293846861232,-0.5514000837018705,-7.522093296051025,2.802517890930176,5.961863994598389,1.549609184265137,-0.06332266330718994,0.3032764196395874,XArbitraryZVertical,-0.5691376824352937,0.08765484829304888,0.6021702305394139,0.5529827155799313,0.7823787927627563,0.5238803029060364,-0.3367978632450104,29286.441947125,unknown,2,2020-03-06 13:47:44.787 +0100,605191665.5698276,0,-8.87,98.78629
2020-03-06 13:47:47.540 +0100,29289.193316625,3.090301513671875,1.168807983398438,-0.603851318359375,29289.173218625,2.245416177773608,1.320008702228628,-0.4859652193883109,-8.509949684143066,1.595065832138062,6.139105796813965,2.204824924468994,0.1595109403133392,0.07168680429458618,XArbitraryZVertical,-0.6187054348132435,0.08652113696668336,0.627173887559323,0.4651564466916452,0.8565635085105896,0.4670620560646057,-0.2194353491067886,29286.441947125,unknown,2,2020-03-06 13:47:44.787 +0100,605191665.5698276,0,-8.87,98.78629
2020-03-06 13:47:47.560 +0100,29289.213415625,2.612228393554688,1.407745361328125,-0.7854461669921875,29289.193316625,2.462173920948192,1.430370943800289,-0.3962272470878459,-8.58088207244873,0.0659881979227066,6.364296913146973,2.24625825881958,0.635041356086731,-0.4102447032928467,XArbitraryZVertical,-0.6557014484238805,0.0741310909158609,0.6548959348847739,0.3683360353426455,0.9134427309036255,0.3859406411647797,-0.1291203796863556,29286.441947125,unknown,2,2020-03-06 13:47:44.787 +0100,605191665.5698276,0,-8.87,98.78629
2020-03-06 13:47:47.580 +0100,29289.233514625,1.905670166015625,1.0621337890625,-0.5496063232421875,29289.213415625,2.635250139618793,1.473662606884254,-0.2905762580354722,-5.99505090713501,-1.472722053527832,5.802116870880127,1.807533264160156,1.107539415359497,-0.6785966753959656,XArbitraryZVertical,-0.6705277571880305,0.062727813554114,0.6850723160680717,0.2777294052058844,0.9535627365112305,0.2865043878555298,-0.09291549772024155,29286.441947125,unknown,2,2020-03-06 13:47:44.787 +0100,605191665.5698276,0,-8.87,98.78629
2020-03-06 13:47:47.600 +0100,29289.253613625,1.319091796875,0.5501708984375,-0.221893310546875,29289.233514625,2.739287759964983,1.461518117041584,-0.1899195259284459,-3.072264194488525,-2.091428518295288,5.227086544036865,1.107551097869873,1.011843323707581,-0.5335679650306702,XArbitraryZVertical,-0.6651384412345641,0.0635682349726442,0.7137218102941802,0.2101216247935662,0.9761617183685303,0.1887798756361008,-0.1070998683571815,29286.441947125,unknown,2,2020-03-06 13:47:44.787 +0100,605191665.5698276,0,-8.87,98.78629
2020-03-06 13:47:47.620 +0100,29289.273712625,1.026077270507812,0.28692626953125,-0.1383056640625,29289.253613625,2.787072899217681,1.42717208720222,-0.09468860211523696,-0.4035830795764923,-1.935331106185913,4.700130939483643,0.4573292136192322,0.5598415732383728,-0.1393678188323975,XArbitraryZVertical,-0.6498798975928861,0.0800701093332867,0.7378768245745505,0.1636540283107772,0.9852702021598816,0.09454716742038727,-0.1424897909164429,29286.441947125,unknown,2,2020-03-06 13:47:44.787 +0100,605191665.5698276,0,-8.87,98.78629
2020-03-06 13:47:47.640 +0100,29289.293810625,1.123260498046875,0.1289215087890625,-0.266357421875,29289.273712625,2.7891951154255,1.396366308175961,-0.007594731536722666,1.321990847587585,-1.107923865318298,3.874366998672485,0.07280784845352173,0.3363232016563416,0.04643875360488892,XArbitraryZVertical,-0.6333795332793789,0.1098155649640256,0.7537179259972331,0.1366752232770249,0.9847971796989441,0.007594658527523279,-0.1735418140888214,29286.441947125,unknown,2,2020-03-06 13:47:44.787 +0100,605191665.5698276,0,-8.87,98.78629
2020-03-06 13:47:47.660 +0100,29289.313909625,1.205917358398438,0.2074127197265625,-0.2808380126953125,29289.293810625,2.770595560890731,1.379882869444944,0.06724501686530912,1.699984908103943,-0.7764379978179932,3.119842767715454,0.100545346736908,0.2166539579629898,-0.04452651739120483,XArbitraryZVertical,-0.6204370698134836,0.1428088285387865,0.7615692966487967,0.1211430589201172,0.9796122312545776,-0.06719435006380081,-0.1893269568681717,29286.441947125,unknown,2,2020-03-06 13:47:44.787 +0100,605191665.5698276,0,-8.87,98.78629
2020-03-06 13:47:47.690 +0100,29289.334008625,1.132369995117188,0.349456787109375,-0.2292938232421875,29289.313909625,2.749953477498999,1.362921552913066,0.1276935125550436,1.448546648025513,-1.123367547988892,2.373523712158203,0.2353389263153076,0.2968714833259583,-0.08361166715621948,XArbitraryZVertical,-0.6069888305354673,0.1709218131328134,0.7680782452686743,0.1113825090731409,0.9705052375793457,-0.1273467689752579,-0.2047005891799927,29286.441947125,unknown,2,2020-03-06 13:47:44.787 +0100,605191665.5698276,0,-8.87,98.78629
2020-03-06 13:47:47.700 +0100,29289.354107625,1.102569580078125,0.313232421875,-0.11212158203125,29289.334008625,2.732306165620441,1.340682999473512,0.1729751702221001,1.259442329406738,-1.31795072555542,1.632013201713562,0.1953414082527161,0.4978885054588318,-0.01834022998809814,XArbitraryZVertical,-0.5922612319057314,0.1920535723250613,0.7752960161766416,0.106104244073816,0.9591109752655029,-0.1721138805150986,-0.2246841192245483,29286.441947125,unknown,2,2020-03-06 13:47:44.787 +0100,605191665.5698276,0,-8.87,98.78629
2020-03-06 13:47:47.721 +0100,29289.374205625,1.136032104492188,0.2218780517578125,0.0947418212890625,29289.354107625,2.713965011646383,1.316881783358913,0.2029452984221917,1.166473031044006,-1.383813500404358,0.8671427965164185,0.1521509885787964,0.5371867418289185,0.09052449464797974,XArbitraryZVertical,-0.5778743277269727,0.2074642845708286,0.7821124525742884,0.1063948868235954,0.9480717182159424,-0.2015550583600998,-0.2460396587848663,29286.441947125,unknown,2,2020-03-06 13:47:44.787 +0100,605191665.5698276,0,-8.87,98.78629
2020-03-06 13:47:47.741 +0100,29289.394304625,1.141921997070312,0.1897125244140625,0.2166748046875,29289.374205625,2.699231685998439,1.291446691109914,0.2199714314727715,0.5342282056808472,-1.453642249107361,0.4479564726352692,0.1925148367881775,0.4578403830528259,0.3162230849266052,XArbitraryZVertical,-0.5643369652677194,0.2167500081077673,0.7889911492843503,0.1097092168248913,0.938072681427002,-0.2182017415761948,-0.2690864503383636,29286.441947125,unknown,2,2020-03-06 13:47:44.787 +0100,605191665.5698276,0,-8.87,98.78629
2020-03-06 13:47:47.761 +0100,29289.414403625,1.1412353515625,0.17620849609375,0.2217559814453125,29289.394304625,2.702251379142365,1.26113773090518,0.2254853694020506,-0.7169071435928345,-1.481837630271912,0.1590843051671982,0.2150318026542664,0.4169687330722809,0.4973236918449402,XArbitraryZVertical,-0.5519814103436717,0.2163488856009959,0.7977326508372983,0.1101465254877803,0.9283273220062256,-0.223579466342926,-0.297019362449646,29286.441947125,unknown,2,2020-03-06 13:47:44.787 +0100,605191665.5698276,0,-8.87,98.78629
2020-03-06 13:47:47.781 +0100,29289.434502625,1.164764404296875,0.18048095703125,0.201812744140625,29289.414403625,2.729654742147725,1.225568535342045,0.2166097185304083,-2.071200609207153,-1.453648567199707,-0.1206854283809662,0.2195285558700562,0.3941335678100586,0.5549924373626709,XArbitraryZVertical,-0.5416074849513747,0.2034941158323142,0.8087817662167116,0.1054683103488318,0.9190088510513306,-0.2149198055267334,-0.3305029571056366,29286.441947125,unknown,2,2020-03-06 13:47:44.787 +0100,605191665.5698276,0,-8.87,98.78629
2020-03-06 13:47:47.801 +0100,29289.454601625,1.097564697265625,0.20867919921875,0.177276611328125,29289.434502625,2.778625222350315,1.186417744613001,0.1940659020322209,-3.125296115875244,-1.469212412834167,-0.2384687215089798,0.2520554661750793,0.370415985584259,0.5736956000328064,XArbitraryZVertical,-0.5327587353194608,0.1794327639603815,0.8214726929921259,0.09567949707585426,0.9096295833587646,-0.1928500533103943,-0.3679440319538116,29286.441947125,unknown,2,2020-03-06 13:47:44.787 +0100,605191665.5698276,0,-8.87,98.78629
2020-03-06 13:47:47.821 +0100,29289.47469825,0.9582672119140625,0.248260498046875,0.13934326171875,29289.454601625,2.841907348698023,1.144811012849354,0.1615980946185999,-3.792596578598022,-1.542236566543579,-0.2879081666469574,0.2264946699142456,0.363241970539093,0.5918424129486084,XArbitraryZVertical,-0.5237106814036158,0.1476815323993428,0.8349957050958631,0.08184977744900321,0.8987677693367004,-0.1608956903219223,-0.4078345596790314,29286.441947125,unknown,2,2020-03-06 13:47:44.787 +0100,605191665.5698276,0,-8.87,98.78629
2020-03-06 13:47:47.842 +0100,29289.49479725,0.8321533203125,0.2953643798828125,0.1122589111328125,29289.47469825,2.912566899794001,1.104100582798107,0.1209812500454343,-4.20806884765625,-1.498898506164551,-0.3408655822277069,0.107870876789093,0.3582347333431244,0.5933643579483032,XArbitraryZVertical,-0.5141648949982063,0.1109499705704211,0.8479500678731763,0.06561487159930018,0.8865322470664978,-0.1206863448023796,-0.4466491341590881,29286.441947125,unknown,2,2020-03-06 13:47:44.787 +0100,605191665.5698276,0,-8.87,98.78629
2020-03-06 13:47:47.864 +0100,29289.51489625,0.744293212890625,0.3462982177734375,0.089263916015625,29289.49479725,2.986966347176879,1.068015055104797,0.07427393779059764,-4.453773498535156,-1.357468366622925,-0.3214987218379974,-0.01274305582046509,0.3576068878173828,0.5968707799911499,XArbitraryZVertical,-0.5046482542875558,0.07114882403335097,0.8590708290261571,0.047595618943808,0.8738299608230591,-0.0742056667804718,-0.4805359542369843,29286.441947125,unknown,2,2020-03-06 13:47:44.787 +0100,605191665.5698276,0,-8.87,98.78629
2020-03-06 13:47:47.881 +0100,29289.53499525,0.6938323974609375,0.3923492431640625,0.0792999267578125,29289.51489625,3.06272983696611,1.038966615126431,0.02425886591229295,-4.510482788085938,-1.154485940933228,-0.2750124037265778,-0.1006380319595337,0.3577677309513092,0.5998591184616089,XArbitraryZVertical,-0.4955942261838994,0.03008931378128666,0.8675746348267513,0.02820146274233533,0.8616271018981934,-0.02425648644566536,-0.5069620013237,29286.441947125,unknown,2,2020-03-06 13:47:44.787 +0100,605191665.5698276,0,-8.87,98.78629
2020-03-06 13:47:47.902 +0100,29289.55509325,0.66888427734375,0.4030914306640625,0.0802154541015625,29289.53499525,3.136280792780766,1.018174073061452,-0.02584383082013111,-4.293865203857422,-0.9142244458198547,-0.2038050442934036,-0.1462133526802063,0.3553541600704193,0.6085788607597351,XArbitraryZVertical,-0.4873678283018759,-0.009988593208427116,0.8730970734010436,0.00861662441441239,0.8508667349815369,0.02584095485508442,-0.5247456431388855,29286.441947125,unknown,2,2020-03-06 13:47:44.787 +0100,605191665.5698276,0,-8.87,98.78629
2020-03-06 13:47:47.922 +0100,29289.57519225,0.5936279296875,0.3851470947265625,0.0766143798828125,29289.55509325,-3.078802620226007,1.006032060176158,-0.07177997330117687,-3.839665651321411,-0.6194474697113037,-0.07383026927709579,-0.1663134098052979,0.3319683372974396,0.6089283227920532,XArbitraryZVertical,-0.4805355029130238,-0.04654451581908989,0.8756799050196392,-0.01019471462261438,0.8425396084785461,0.07171835005283356,-0.5338384509086609,29286.441947125,unknown,2,2020-03-06 13:47:44.787 +0100,605191665.5698276,0,-8.87,98.78629
2020-03-06 13:47:47.942 +0100,29289.59529125,0.5524139404296875,0.3258514404296875,0.0558013916015625,29289.57519225,-3.017834450096733,1.001468185634534,-0.1112318263082511,-3.366917610168457,-0.3670910596847534,0.0001823380589485168,-0.2211806178092957,0.2855430841445923,0.6151735782623291,XArbitraryZVertical,-0.4753945030021253,-0.07831091691059031,0.875847970405799,-0.02752904860968576,0.8370582461357117,0.1110026016831398,-0.5357349514961243,29286.441947125,unknown,2,2020-03-06 13:47:44.787 +0100,605191665.5698276,0,-8.87,98.78629
2020-03-06 13:47:47.962 +0100,29289.61539025,0.5977630615234375,0.3080291748046875,0.0069427490234375,29289.59529125,-2.964332903120358,1.005634937591852,-0.1438523880250671,-2.80630087852478,0.129269540309906,0.1203127354383469,-0.2841107249259949,0.1962279379367828,0.5935746431350708,XArbitraryZVertical,-0.47318996969546,-0.1052665001306984,0.8735977237921959,-0.04286268351575147,0.8357793688774109,0.1433567702770233,-0.5300204157829285,29286.441947125,unknown,2,2020-03-06 13:47:44.787 +0100,605191665.5698276,0,-8.87,98.78629
2020-03-06 13:47:47.982 +0100,29289.63548925,0.633148193359375,0.31494140625,-0.067962646484375,29289.61539025,-2.920101029711148,1.019889180662547,-0.1665164987065606,-2.036565065383911,0.5738387703895569,0.2692031860351562,-0.2566897869110107,0.1409082561731339,0.5394909977912903,XArbitraryZVertical,-0.4754364031866258,-0.1258977944356341,0.8689065930778189,-0.05577907288615352,0.8402645587921143,0.1657480448484421,-0.5162199735641479,29286.441947125,unknown,2,2020-03-06 13:47:44.787 +0100,605191665.5698276,0,-8.87,98.78629
2020-03-06 13:47:48.002 +0100,29289.65558725,0.6234893798828125,0.3289642333984375,-0.108001708984375,29289.63548925,-2.890293780226769,1.039842892331343,-0.1762844173331996,-0.8993998765945435,0.896755576133728,0.417512446641922,-0.2189530730247498,0.1379211246967316,0.4479116201400757,XArbitraryZVertical,-0.4814080469530842,-0.1378119844805448,0.8631546178558679,-0.06494834115357193,0.8489604592323303,0.1753727942705154,-0.4985083043575287,29286.441947125,unknown,2,2020-03-06 13:47:44.787 +0100,605191665.5698276,0,-8.87,98.78629
2020-03-06 13:47:48.022 +0100,29289.67568625,0.644805908203125,0.3573455810546875,-0.13946533203125,29289.67568625,-2.895253827703208,1.090155420653684,-0.1460331271031242,1.784451842308044,1.668545007705688,0.7467371225357056,-0.2440794706344604,0.2014095783233643,0.3289337158203125,XArbitraryZVertical,-0.5055216787478336,-0.1254378304002045,0.8509949172505751,-0.0672367548952493,0.8772608041763306,0.1455146372318268,-0.4574263691902161,29286.441947125,unknown,2,2020-03-06 13:47:44.787 +0100,605191665.5698276,0,-8.87,98.78629
2020-03-06 13:47:48.042 +0100,29289.69578525,0.705657958984375,0.4217376708984375,-0.246124267578125,29289.67568625,-2.895253827703208,1.090155420653684,-0.1460331271031242,1.784451842308044,1.668545007705688,0.7467371225357056,-0.2440794706344604,0.2014095783233643,0.3289337158203125,XArbitraryZVertical,-0.5055216787478336,-0.1254378304002045,0.8509949172505751,-0.0672367548952493,0.8772608041763306,0.1455146372318268,-0.4574263691902161,29286.441947125,unknown,2,2020-03-06 13:47:44.787 +0100,605191665.5698276,0,-8.87,98.78629
2020-03-06 13:47:48.062 +0100,29289.71588425,0.760345458984375,0.510284423828125,-0.464752197265625,29289.69578525,-2.931908348313972,1.12201591377859,-0.1111067655739755,3.016046285629272,1.931380748748779,0.7162669897079468,-0.207018256187439,0.2934799194335938,0.2233995795249939,XArbitraryZVertical,-0.5233822503026232,-0.102347966797538,0.8438625204971859,-0.05909344141381485,0.8954215049743652,0.1108783110976219,-0.4311918318271637,29286.441947125,unknown,2,2020-03-06 13:47:44.787 +0100,605191665.5698276,0,-8.87,98.78629
2020-03-06 13:47:48.082 +0100,29289.73598325,0.7765655517578125,0.5639801025390625,-0.4912109375,29289.71588425,-2.994304213396146,1.155603892649469,-0.06824216984184965,4.42169189453125,1.907865047454834,0.5511437058448792,-0.166918933391571,0.4189172983169556,-0.01051950454711914,XArbitraryZVertical,-0.5422839559556315,-0.06866259628017263,0.8362793248718509,-0.04301529103190161,0.9129087924957275,0.06818921864032745,-0.4024271070957184,29286.441947125,unknown,2,2020-03-06 13:47:44.787 +0100,605191665.5698276,0,-8.87,98.78629
2020-03-06 13:47:48.103 +0100,29289.75608125,0.7625579833984375,0.49871826171875,-0.349029541015625,29289.73598325,-3.086792730702415,1.187975046724683,-0.02047883713130375,5.858881950378418,1.716564297676086,0.2395232617855072,-0.1467618942260742,0.5381926894187927,-0.1340292096138,XArbitraryZVertical,-0.5591981137948443,-0.02381444565866719,0.8285180728356011,-0.0169742985784533,0.9274199604988098,0.02047740668058395,-0.3734606802463531,29286.441947125,unknown,2,2020-03-06 13:47:44.787 +0100,605191665.5698276,0,-8.87,98.78629
2020-03-06 13:47:48.123 +0100,29289.77618025,0.803131103515625,0.3741607666015625,-0.2393798828125,29289.75608125,3.077873204917395,1.222160636953232,0.0254204127717371,6.647556304931641,1.667885541915894,-0.1953769773244858,-0.175159215927124,0.552807092666626,-0.04865968227386475,XArbitraryZVertical,-0.5730835370301041,0.02867948985488916,0.8187790992926157,0.01879888119100665,0.939535915851593,-0.02541767433285713,-0.3415054976940155,29286.441947125,unknown,2,2020-03-06 13:47:44.787 +0100,605191665.5698276,0,-8.87,98.78629
2020-03-06 13:47:48.144 +0100,29289.79627925,0.8917083740234375,0.2406463623046875,-0.2357177734375,29289.77618025,2.949565924910379,1.261621721369764,0.06078414803129455,6.397614002227783,1.690041780471802,-0.572282612323761,-0.1651323437690735,0.4685834050178528,0.04490852355957031,XArbitraryZVertical,-0.5844597070244651,0.08094188150268075,0.8051770115899601,0.05954076793766219,0.9508257508277893,-0.06074672564864159,-0.3037105202674866,29286.441947125,unknown,2,2020-03-06 13:47:44.787 +0100,605191665.5698276,0,-8.87,98.78629
2020-03-06 13:47:48.181 +0100,29289.81637825,1.01544189453125,0.173370361328125,-0.2828521728515625,29289.79627925,2.831117678309815,1.304107171851935,0.08197673538011695,5.405040740966797,1.677197694778442,-0.7258758544921875,-0.09563744068145752,0.3485167324542999,0.03496497869491577,XArbitraryZVertical,-0.5939835039840452,0.1259228827967418,0.7884662211069023,0.09822404878540236,0.9614091515541077,-0.0818849503993988,-0.262654036283493,29286.441947125,unknown,2,2020-03-06 13:47:44.787 +0100,605191665.5698276,0,-8.87,98.78629
2020-03-06 13:47:48.194 +0100,29289.83647625,1.104476928710938,0.114501953125,-0.281707763671875,29289.81637825,2.733051129670293,1.34572579064525,0.09018850442487801,4.24656343460083,1.612814545631409,-0.8625973463058472,0.0136684775352478,0.2749872505664825,-0.05250948667526245,XArbitraryZVertical,-0.6024983441057785,0.1608157534143806,0.7707019121824463,0.1309677692708877,0.9708166122436523,-0.09006629139184952,-0.2222680747509003,29286.441947125,unknown,2,2020-03-06 13:47:44.787 +0100,605191665.5698276,0,-8.87,98.78629
2020-03-06 13:47:48.203 +0100,29289.85657525,1.095428466796875,0.04052734375,-0.33441162109375,29289.83647625,2.655107432019546,1.383886054594706,0.08718564614736747,3.298135042190552,1.440428853034973,-1.00849461555481,0.1118505001068115,0.2181937247514725,-0.09501528739929199,XArbitraryZVertical,-0.6105817919196387,0.1860936457871017,0.7533271742991129,0.1582945722325921,0.9788509607315063,-0.08707523345947266,-0.1851180642843246,29286.441947125,unknown,2,2020-03-06 13:47:44.787 +0100,605191668.1376497,0,-8.96,98.78668
2020-03-06 13:47:48.223 +0100,29289.87667425,1.004013061523438,0.00506591796875,-0.337371826171875,29289.85657525,2.592956528094061,1.414674373075359,0.0759945966515746,2.633622407913208,1.116483330726624,-1.133228182792664,0.1257189512252808,0.1326992213726044,-0.1668722629547119,XArbitraryZVertical,-0.6172423571341906,0.2036958768854703,0.7378338658109287,0.1819916919828553,0.9849865436553955,-0.07592146843671799,-0.1550397276878357,29286.441947125,unknown,2,2020-03-06 13:47:44.787 +0100,605191668.1376497,0,-8.96,98.78668
2020-03-06 13:47:48.244 +0100,29289.89677325,1.014236450195312,-0.0389251708984375,-0.3371124267578125,29289.87667425,2.541400242271575,1.438713392565985,0.05888919167170793,2.22366738319397,0.9694860577583313,-1.300316333770752,0.03702783584594727,0.07066529989242554,-0.207713782787323,XArbitraryZVertical,-0.6226338901070975,0.2158508197417823,0.7240340364379628,0.2037405322482294,0.9895713925361633,-0.05885516107082367,-0.1314709186553955,29286.441947125,unknown,2,2020-03-06 13:47:44.787 +0100,605191668.1376497,0,-8.96,98.78668
2020-03-06 13:47:48.263 +0100,29289.91687225,1.187149047851562,-0.0429229736328125,-0.351654052734375,29289.89677325,2.495879701412445,1.461195182146131,0.03680036546844858,2.034384489059448,1.077943921089172,-1.390071630477905,2.35438346862793e-05,0.009738147258758545,-0.2274202108383179,XArbitraryZVertical,-0.6283818217296652,0.2246828669706294,0.7100713984286909,0.2246163761950573,0.9933268427848816,-0.03679205849766731,-0.1093077883124352,29286.441947125,unknown,2,2020-03-06 13:47:44.787 +0100,605191668.1376497,0,-8.96,98.78668
2020-03-06 13:47:48.285 +0100,29289.93697025,1.42193603515625,0.00927734375,-0.4142608642578125,29289.91687225,2.452801114657829,1.485792890700875,0.01358791602633355,2.026204586029053,1.243166565895081,-1.317884802818298,0.1381204128265381,-0.03707173466682434,-0.2586858868598938,XArbitraryZVertical,-0.6350000209506942,0.2330843960926665,0.6947997822755528,0.2443358009228011,0.9962974786758423,-0.01358749810606241,-0.08489327877759933,29286.441947125,unknown,2,2020-03-06 13:47:44.787 +0100,605191668.1376497,0,-8.96,98.78668
2020-03-06 13:47:48.304 +0100,29289.95706925,1.704193115234375,0.0682220458984375,-0.5975341796875,29289.93697025,2.408517330080024,1.511349489479257,-0.008316668261938174,2.260453224182129,1.260901808738708,-1.13749086856842,0.3610873222351074,-0.0135960578918457,-0.3292136788368225,XArbitraryZVertical,-0.6413052681796954,0.2429458152879116,0.6784354316062099,0.2634959412168746,0.998198926448822,0.00831657275557518,-0.05940976738929749,29286.441947125,unknown,2,2020-03-06 13:47:44.787 +0100,605191668.1376497,0,-8.96,98.78668
2020-03-06 13:47:48.325 +0100,29289.97716825,1.83197021484375,0.1202850341796875,-0.6627960205078125,29289.95706925,2.357331219212225,1.533677795293971,-0.02460619841439092,2.783735752105713,0.9888530373573303,-0.7112014293670654,0.6372552514076233,0.02687951922416687,-0.516792356967926,XArbitraryZVertical,-0.6445332049520686,0.2569582866604641,0.6621365658090695,0.283062740309702,0.9990086555480957,0.02460371516644955,-0.03709877282381058,29286.441947125,unknown,2,2020-03-06 13:47:44.787 +0100,605191668.1376497,0,-8.96,98.78668
2020-03-06 13:47:48.344 +0100,29289.99726725,1.56939697265625,0.113067626953125,-0.5845794677734375,29289.97716825,2.295726757997893,1.544369160976913,-0.03376873705612733,3.320686340332031,0.1792009472846985,-0.4106890559196472,0.832266628742218,0.08420348167419434,-0.6285562515258789,XArbitraryZVertical,-0.6411003681392726,0.2752922173166493,0.6483386514194456,0.3047319177923363,0.9990809559822083,0.03376232087612152,-0.02640902623534203,29286.441947125,unknown,2,2020-03-06 13:47:44.787 +0100,605191668.1376497,0,-8.96,98.78668
2020-03-06 13:47:48.364 +0100,29290.01736525,1.233200073242188,0.0668182373046875,-0.4694976806640625,29289.99726725,2.225349320381531,1.535651629020704,-0.03796115586859049,3.587890625,-0.7562131881713867,-0.2370087802410126,0.6630073189735413,0.08356907963752747,-0.5710098743438721,XArbitraryZVertical,-0.6288782902039477,0.294883064851708,0.6392926761401181,0.3299407954035744,0.9986624717712402,0.03795203939080238,-0.03511215001344681,29286.441947125,unknown,2,2020-03-06 13:47:44.787 +0100,605191668.1376497,0,-8.96,98.78668
2020-03-06 13:47:48.384 +0100,29290.03746425,1.096145629882812,-0.0783843994140625,-0.358062744140625,29290.03746425,2.105364577059041,1.485985354009757,-0.04681655444528635,1.962842464447021,-1.199513554573059,-0.7246045470237732,0.10686194896698,-0.08648735284805298,-0.2999937534332275,XArbitraryZVertical,-0.5960838345235656,0.3199621955403115,0.631775029867703,0.3783760601060807,0.995313823223114,0.04679945483803749,-0.08461651206016541,29286.441947125,unknown,2,2020-03-06 13:47:44.787 +0100,605191668.1376497,0,-8.96,98.78668
2020-03-06 13:47:48.404 +0100,29290.05756325,1.24456787109375,-0.09429931640625,-0.270477294921875,29290.03746425,2.105364577059041,1.485985354009757,-0.04681655444528635,1.962842464447021,-1.199513554573059,-0.7246045470237732,0.10686194896698,-0.08648735284805298,-0.2999937534332275,XArbitraryZVertical,-0.5960838345235656,0.3199621955403115,0.631775029867703,0.3783760601060807,0.995313823223114,0.04679945483803749,-0.08461651206016541,29286.441947125,unknown,2,2020-03-06 13:47:44.787 +0100,605191668.1376497,0,-8.96,98.78668
2020-03-06 13:47:48.425 +0100,29290.07766225,1.479400634765625,-0.0887298583984375,-0.188873291015625,29290.05756325,2.072492490985338,1.46066222599316,-0.06032272063150339,1.206400513648987,-1.174426078796387,-0.8895336389541626,0.1932182312011719,-0.1656326055526733,-0.1757467985153198,XArbitraryZVertical,-0.5852362362579089,0.3203790147540443,0.6304901680292754,0.3966584365308701,0.9921334385871887,0.06028614193201065,-0.1097116693854332,29286.441947125,unknown,2,2020-03-06 13:47:44.787 +0100,605191668.1376497,0,-8.96,98.78668
2020-03-06 13:47:48.444 +0100,29290.09776125,1.555282592773438,-0.04290771484375,-0.104888916015625,29290.07766225,2.05152379364877,1.432935775097036,-0.07517062812596101,0.7396186590194702,-1.506876945495605,-0.7966247200965881,0.4429065585136414,-0.1627002954483032,-0.07461559772491455,XArbitraryZVertical,-0.5758667681115136,0.3160053331198415,0.6316143292999481,0.4118025852257357,0.9877150058746338,0.07509985566139221,-0.1370361894369125,29286.441947125,unknown,2,2020-03-06 13:47:44.787 +0100,605191668.1376497,0,-8.96,98.78668
2020-03-06 13:47:48.464 +0100,29290.11785925,1.541824340820312,0.0084381103515625,-0.04205322265625,29290.09776125,2.038683062726325,1.395920901717859,-0.08857655725201322,0.2621916532516479,-2.078633069992065,-0.7501114010810852,0.5729334354400635,-0.1434988677501678,0.05210572481155396,XArbitraryZVertical,-0.5646262500576775,0.307482534381091,0.6370351066855249,0.4252504334184684,0.9808876514434814,0.088460773229599,-0.1733033806085587,29286.441947125,unknown,2,2020-03-06 13:47:44.787 +0100,605191668.1376497,0,-8.96,98.78668
2020-03-06 13:47:48.485 +0100,29290.13795825,1.53961181640625,0.0981597900390625,0.0344696044921875,29290.11785925,2.037897797632117,1.349747819966197,-0.1043734690990187,-0.5373594760894775,-2.461961269378662,-0.796995222568512,0.5721710920333862,-0.1098904013633728,0.157347559928894,XArbitraryZVertical,-0.5526799903358295,0.2924295555766175,0.6468922893066524,0.4365319224062235,0.9703584909439087,0.1041840687394142,-0.2180595695972443,29286.441947125,unknown,2,2020-03-06 13:47:44.787 +0100,605191668.1376497,0,-8.96,98.78668
2020-03-06 13:47:48.505 +0100,29290.15805725,1.440902709960938,0.2100067138671875,0.0637359619140625,29290.13795825,2.053341498680791,1.299134558811407,-0.1257323502871512,-1.449035048484802,-2.770226716995239,-0.9158879518508911,0.590836226940155,-0.05527141690254211,0.2859468460083008,XArbitraryZVertical,-0.5423676715278472,0.2696851715760492,0.6603206732510899,0.4439412132532397,0.955721914768219,0.1254013329744339,-0.2662144303321838,29286.441947125,unknown,2,2020-03-06 13:47:44.787 +0100,605191668.1376497,0,-8.96,98.78668
2020-03-06 13:47:48.530 +0100,29290.17815625,1.301040649414062,0.2491455078125,0.060272216796875,29290.15805725,2.082166196183769,1.244373062354869,-0.1568828418759914,-2.108956813812256,-3.046657085418701,-1.22947084903717,0.537477970123291,0.03324410319328308,0.3783670663833618,XArbitraryZVertical,-0.5335683383779454,0.2386319411629558,0.6760074038265391,0.4487466530691667,0.9355628490447998,0.1562400907278061,-0.316719263792038,29286.441947125,unknown,2,2020-03-06 13:47:44.787 +0100,605191668.1376497,0,-8.96,98.78668
2020-03-06 13:47:48.545 +0100,29290.19825525,1.223175048828125,0.250732421875,-0.003448486328125,29290.17815625,2.114225188026706,1.188532209785744,-0.1990765350090545,-2.216342449188232,-3.027378797531128,-1.617598176002502,0.4234827756881714,0.04501911997795105,0.4321548342704773,XArbitraryZVertical,-0.525686058029931,0.2020563552552224,0.6907133488803218,0.4535884349186248,0.9094976186752319,0.1977641880512238,-0.3656547963619232,29286.441947125,unknown,2,2020-03-06 13:47:44.787 +0100,605191668.1376497,0,-8.96,98.78668
2020-03-06 13:47:48.565 +0100,29290.21835325,1.206756591796875,0.2191314697265625,-0.0667877197265625,29290.19825525,2.138739749626035,1.134723709939993,-0.2489050591948485,-1.893942952156067,-2.851138591766357,-1.981000185012817,0.3554055690765381,0.008800193667411804,0.4227654933929443,XArbitraryZVertical,-0.5179266895115231,0.1645261197051221,0.701721733632146,0.4607273837907922,0.8784841895103455,0.2463429123163223,-0.4093661904335022,29286.441947125,unknown,2,2020-03-06 13:47:44.787 +0100,605191668.1376497,0,-8.96,98.78668
2020-03-06 13:47:48.585 +0100,29290.23845225,1.187149047851562,0.2004241943359375,-0.10589599609375,29290.23845225,2.144784702443429,1.027819369522508,-0.3549868081718044,-0.8866344690322876,-2.584055423736572,-2.45261812210083,0.39096599817276,-0.1448790729045868,0.3847424983978271,XArbitraryZVertical,-0.4984982102773052,0.09624683433496789,0.7113824530838662,0.4859742765035774,0.8027927279472351,0.3475779891014099,-0.4844721555709839,29286.441947125,unknown,2,2020-03-06 13:47:44.787 +0100,605191668.1376497,0,-8.96,98.78668
2020-03-06 13:47:48.605 +0100,29290.25855125,1.13299560546875,0.20111083984375,-0.1154937744140625,29290.23845225,2.144784702443429,1.027819369522508,-0.3549868081718044,-0.8866344690322876,-2.584055423736572,-2.45261812210083,0.39096599817276,-0.1448790729045868,0.3847424983978271,XArbitraryZVertical,-0.4984982102773052,0.09624683433496789,0.7113824530838662,0.4859742765035774,0.8027927279472351,0.3475779891014099,-0.4844721555709839,29286.441947125,unknown,2,2020-03-06 13:47:44.787 +0100,605191668.1376497,0,-8.96,98.78668
2020-03-06 13:47:48.626 +0100,29290.27865025,1.087173461914062,0.2893524169921875,-0.118316650390625,29290.25855125,2.128796886038748,0.9710585754991893,-0.4043729165828688,-0.5428361892700195,-2.464908123016357,-2.478119850158691,0.3890591859817505,-0.1990287601947784,0.404984176158905,XArbitraryZVertical,-0.4859372809698331,0.06642764917216504,0.712220884628151,0.5021889308494658,0.7589077949523926,0.3934423327445984,-0.5189046263694763,29286.441947125,unknown,2,2020-03-06 13:47:44.787 +0100,605191668.1376497,0,-8.96,98.78668
2020-03-06 13:47:48.647 +0100,29290.29874825,1.085556030273438,0.3323822021484375,-0.1199798583984375,29290.27865025,2.103091261939171,0.9124816146009519,-0.4495783882036335,-0.2205150723457336,-2.299567699432373,-2.529953718185425,0.3813773989677429,-0.1716297268867493,0.4336836934089661,XArbitraryZVertical,-0.4721776107115611,0.03940042354638802,0.7110476103048959,0.5195259148555521,0.7124205827713013,0.4345858693122864,-0.5509918332099915,29286.441947125,unknown,2,2020-03-06 13:47:44.787 +0100,605191668.1376497,0,-8.96,98.78668
2020-03-06 13:47:48.674 +0100,29290.31884725,1.09295654296875,0.3066253662109375,-0.078582763671875,29290.29874825,2.067216793873325,0.8515026427986125,-0.4888242461586509,0.2247005254030228,-2.153789520263672,-2.478289127349854,0.4189473986625671,-0.1371127963066101,0.4604626297950745,XArbitraryZVertical,-0.4570631972590545,0.01571985720317493,0.7080565585990038,0.5380538794217867,0.6641694307327271,0.4695881605148315,-0.5816922187805176,29286.441947125,unknown,2,2020-03-06 13:47:44.787 +0100,605191668.1376497,0,-8.96,98.78668
2020-03-06 13:47:48.685 +0100,29290.33894625,1.053573608398438,0.238372802734375,-0.0064239501953125,29290.31884725,2.022397381874903,0.7878365515237059,-0.5179336159245801,0.6218166351318359,-2.023401498794556,-2.286971569061279,0.4761508703231812,-0.1744511425495148,0.5179879069328308,XArbitraryZVertical,-0.4399491598929638,-0.003450609021238657,0.7042935548400788,0.557138633124674,0.6158617734909058,0.4950858354568481,-0.612865686416626,29286.441947125,unknown,2,2020-03-06 13:47:44.787 +0100,605191668.1376497,0,-8.96,98.78668
2020-03-06 13:47:48.705 +0100,29290.35904525,0.95343017578125,0.2360382080078125,0.03643798828125,29290.33894625,1.974558285606844,0.7242064466627266,-0.5372764382108538,0.7556256651878357,-1.912404775619507,-2.028483390808105,0.5019454956054688,-0.2613537311553955,0.6204677820205688,XArbitraryZVertical,-0.4217752954690221,-0.01896278465952979,0.7006201143927904,0.5752193805247792,0.5691930055618286,0.511798083782196,-0.6434920430183411,29286.441947125,unknown,2,2020-03-06 13:47:44.787 +0100,605191668.1376497,0,-8.96,98.78668
2020-03-06 13:47:48.725 +0100,29290.37914425,0.86572265625,0.2293548583984375,0.0572357177734375,29290.35904525,1.929200611854437,0.6637233373927574,-0.5510568974066206,0.6373595595359802,-1.754961490631104,-1.829481601715088,0.4553354382514954,-0.2932241559028625,0.6997432708740234,XArbitraryZVertical,-0.4041982407392016,-0.0327581907747898,0.6971737390700096,0.5911847441751648,0.5248605012893677,0.5235879421234131,-0.6711013913154602,29286.441947125,unknown,2,2020-03-06 13:47:44.787 +0100,605191668.1376497,0,-8.96,98.78668
2020-03-06 13:47:48.746 +0100,29290.39924225,0.795501708984375,0.2281494140625,0.0496978759765625,29290.37914425,1.888700293822335,0.6094569457336216,-0.5624975691509135,0.4944863617420197,-1.501405000686646,-1.576166987419128,0.4006015360355377,-0.297504723072052,0.7496863603591919,XArbitraryZVertical,-0.3887379760292857,-0.0455033060992733,0.6936071965776893,0.604748963382935,0.4842267632484436,0.5333006381988525,-0.6936244964599609,29286.441947125,unknown,2,2020-03-06 13:47:44.787 +0100,605191668.1376497,0,-8.96,98.78668
2020-03-06 13:47:48.766 +0100,29290.41934125,0.7423248291015625,0.2365570068359375,0.037200927734375,29290.39924225,1.854679306613102,0.5636783843739677,-0.5712417670790411,0.3499631285667419,-1.228476643562317,-1.289831280708313,0.3626514673233032,-0.3122358918190002,0.7644491195678711,XArbitraryZVertical,-0.3758636964953174,-0.05641308801475703,0.6903148458296563,0.6156373937302102,0.4494685530662537,0.5406770706176758,-0.7110880613327026,29286.441947125,unknown,2,2020-03-06 13:47:44.787 +0100,605191668.1376497,0,-8.96,98.78668
2020-03-06 13:47:48.786 +0100,29290.43944025,0.68035888671875,0.268280029296875,0.0095672607421875,29290.41934125,1.827830866414154,0.5276835311680198,-0.5790005381673037,0.1482764929533005,-0.9000834822654724,-1.022596001625061,0.3325825929641724,-0.3123682141304016,0.7651800513267517,XArbitraryZVertical,-0.3662185780719885,-0.06561842825335221,0.6872216680696719,0.6239427307130023,0.4214623868465424,0.5471876263618469,-0.7231563329696655,29286.441947125,unknown,2,2020-03-06 13:47:44.787 +0100,605191668.1376497,0,-8.96,98.78668
2020-03-06 13:47:48.806 +0100,29290.45953925,0.6143035888671875,0.3190155029296875,-0.0162200927734375,29290.43944025,1.809009174129065,0.5023883915578229,-0.5867125707517969,-0.03854962810873985,-0.5820490717887878,-0.7231291532516479,0.2964416742324829,-0.2990009188652039,0.7466655373573303,XArbitraryZVertical,-0.3601684040511353,-0.07311929932495576,0.6844932434941835,0.6296041309824383,0.4009932577610016,0.5536263585090637,-0.7298645973205566,29286.441947125,unknown,2,2020-03-06 13:47:44.787 +0100,605191668.1376497,0,-8.96,98.78668
2020-03-06 13:47:48.826 +0100,29290.479638375,0.560150146484375,0.3567047119140625,-0.0976715087890625,29290.45953925,1.797675952661592,0.488353510750175,-0.5944445116596425,-0.1882123202085495,-0.1651964038610458,-0.4684044122695923,0.2418040633201599,-0.2514681220054626,0.7255309820175171,XArbitraryZVertical,-0.3578111692003526,-0.07849882088414406,0.682017076702779,0.6329785198351418,0.3886905312538147,0.5600486397743225,-0.7316182255744934,29286.441947125,unknown,2,2020-03-06 13:47:44.787 +0100,605191668.1376497,0,-8.96,98.78668
2020-03-06 13:47:48.846 +0100,29290.499736375,0.541046142578125,0.4078521728515625,-0.3212127685546875,29290.479638375,1.792997425311327,0.4870972064810076,-0.6021109186684602,-0.3220502436161041,0.2959529161453247,-0.2462179511785507,0.1847623586654663,-0.2193657755851746,0.657429575920105,XArbitraryZVertical,-0.3595729580269078,-0.08100713542238482,0.6793513819006529,0.6345288229678258,0.3857500553131104,0.566383421421051,-0.7282902598381042,29286.441947125,unknown,2,2020-03-06 13:47:44.787 +0100,605191668.1376497,0,-8.96,98.78668
2020-03-06 13:47:48.866 +0100,29290.519835375,0.5326080322265625,0.4773712158203125,-0.5850982666015625,29290.499736375,1.793409161162404,0.4970517840070687,-0.6108306555040784,-0.4126429557800293,0.6417987942695618,-0.1466513425111771,0.1511693596839905,-0.1790298223495483,0.4730527997016907,XArbitraryZVertical,-0.3652010175676486,-0.0812734926301876,0.6760592229163364,0.6347965869169843,0.3906107544898987,0.5735480785369873,-0.7200456857681274,29286.441947125,unknown,2,2020-03-06 13:47:44.787 +0100,605191668.1376497,0,-8.96,98.78668
2020-03-06 13:47:48.886 +0100,29290.539934375,0.465972900390625,0.5915374755859375,-0.7143707275390625,29290.519835375,1.795435897481946,0.5128418592288049,-0.6171761476379163,-0.1538420915603638,0.7982130646705627,-0.002790915779769421,0.140391618013382,-0.1231352090835571,0.185930609703064,XArbitraryZVertical,-0.3720832253558409,-0.07907375645374959,0.6725951308621322,0.6347576228023113,0.4001373946666718,0.5787345767021179,-0.7106028199195862,29286.441947125,unknown,2,2020-03-06 13:47:44.787 +0100,605191668.1376497,0,-8.96,98.78668
2020-03-06 13:47:48.906 +0100,29290.560033375,0.4063568115234375,0.7944793701171875,-0.7469635009765625,29290.539934375,1.794723100183358,0.5302457322250889,-0.6143437848216924,0.4820639491081238,0.9816926121711731,0.06160561740398407,0.07321158051490784,-0.0186503529548645,-0.0006071329116821289,XArbitraryZVertical,-0.3772237573762084,-0.07232432405082798,0.6696496242104771,0.6356419720990847,0.4132707417011261,0.576422393321991,-0.7049428820610046,29286.441947125,unknown,2,2020-03-06 13:47:44.787 +0100,605191668.1376497,0,-8.96,98.78668
2020-03-06 13:47:48.926 +0100,29290.580132375,0.4769134521484375,0.8254852294921875,-1.156234741210938,29290.560033375,1.781927414193895,0.5434723405584628,-0.5976733078661624,1.485229730606079,1.000891327857971,-0.1354714632034302,-0.01485365629196167,0.1748917102813721,-0.02084988355636597,XArbitraryZVertical,-0.3777734031409297,-0.05929652299891665,0.6662625733333228,0.6402072417919281,0.4274684190750122,0.5627206563949585,-0.707542359828949,29286.441947125,unknown,2,2020-03-06 13:47:44.787 +0100,605191668.1376497,0,-8.96,98.78668
2020-03-06 13:47:48.946 +0100,29290.600230375,0.4980926513671875,0.7008209228515625,-1.596023559570312,29290.580132375,1.752817614697239,0.5429861749113724,-0.563214322706758,2.844396114349365,0.471529096364975,-0.04875154793262482,0.01401114463806152,0.3197484612464905,-0.2911459803581238,XArbitraryZVertical,-0.36927550273211,-0.04088243258039521,0.6634491800085273,0.6494608553894284,0.4368879795074463,0.5339068174362183,-0.7239284515380859,29286.441947125,unknown,2,2020-03-06 13:47:44.787 +0100,605191668.1376497,0,-8.96,98.78668
2020-03-06 13:47:48.967 +0100,29290.620329375,0.34375,0.39080810546875,-1.63946533203125,29290.600230375,1.711174072499562,0.5238075774819277,-0.4958519278163481,4.674795150756836,-0.2941275835037231,0.3358248770236969,0.07153555750846863,0.2553457319736481,-0.760506808757782,XArbitraryZVertical,-0.3449318199949447,-0.01434231297922169,0.6652481260600759,0.6620130826989726,0.4399408996105194,0.4757811427116394,-0.7616326808929443,29286.441947125,unknown,2,2020-03-06 13:47:44.787 +0100,605191668.1376497,0,-8.96,98.78668
2020-03-06 13:47:48.987 +0100,29290.640428375,0.240203857421875,-0.023040771484375,-1.56231689453125,29290.620329375,1.663119428214703,0.4903263915080595,-0.4037297409374647,5.124670505523682,-0.9193671941757202,0.3409335315227509,-0.04563099145889282,0.1061893999576569,-0.83884596824646,XArbitraryZVertical,-0.3067602006182898,0.01646901908653032,0.6695432488577493,0.6762682787767937,0.4330534040927887,0.392850935459137,-0.8112539052963257,29286.441947125,unknown,2,2020-03-06 13:47:44.787 +0100,605191668.1376497,0,-8.96,98.78668
2020-03-06 13:47:49.007 +0100,29290.660527375,0.24554443359375,-0.15380859375,-1.49566650390625,29290.640428375,1.627035514804102,0.4543619958946226,-0.3199480359662581,3.533021926879883,-1.387610554695129,0.5147624015808105,-0.1644783914089203,-0.2564409971237183,-0.7243433594703674,XArbitraryZVertical,-0.2682016946561147,0.0399617897162733,0.6743488342719149,0.6868219218071914,0.4166162610054016,0.3145172297954559,-0.8529418110847473,29286.441947125,unknown,2,2020-03-06 13:47:44.787 +0100,605191668.1376497,0,-8.96,98.78668
2020-03-06 13:47:49.027 +0100,29290.680626375,0.2284698486328125,-0.0037689208984375,-1.53668212890625,29290.660527375,1.619795318680415,0.4196021505404606,-0.27306339455781,1.026064276695251,-1.829930424690247,0.8673554062843323,-0.152112603187561,-0.4172797203063965,-0.620737612247467,XArbitraryZVertical,-0.2412238431497609,0.04586742169844491,0.6821974710165151,0.6887044515718086,0.3923027813434601,0.2696825861930847,-0.8794144988059998,29286.441947125,unknown,2,2020-03-06 13:47:44.787 +0100,605191668.1376497,0,-8.96,98.78668
2020-03-06 13:47:49.047 +0100,29290.700724375,0.1532135009765625,0.249176025390625,-1.581329345703125,29290.680626375,1.637409348871559,0.3841906620514255,-0.2617752211543724,-0.4343547523021698,-2.126369953155518,1.066572070121765,-0.1209191083908081,-0.3223932385444641,-0.6240436434745789,XArbitraryZVertical,-0.22574921710318,0.03575567735224671,0.6936752347581095,0.6830618541241114,0.3620399534702301,0.2587957084178925,-0.8955176472663879,29286.441947125,unknown,2,2020-03-06 13:47:44.787 +0100,605191668.1376497,0,-8.96,98.78668
2020-03-06 13:47:49.067 +0100,29290.720823375,0.1137237548828125,0.37750244140625,-1.512039184570312,29290.700724375,1.661395819224727,0.3461509835405597,-0.2667622298813829,-0.7089570760726929,-2.269744634628296,0.8817401528358459,-0.1567760705947876,-0.06963872909545898,-0.6725884079933167,XArbitraryZVertical,-0.2143734295317889,0.01837189847588364,0.7054656240382813,0.6752960516552748,0.32727912068367,0.2636095881462097,-0.9074130058288574,29286.441947125,unknown,2,2020-03-06 13:47:44.787 +0100,605191668.1376497,0,-8.96,98.78668
2020-03-06 13:47:49.087 +0100,29290.740922375,0.0936431884765625,0.409271240234375,-1.45941162109375,29290.720823375,1.680830429425437,0.3047633639993109,-0.2716576098107102,-0.2755898833274841,-2.353298425674438,0.7480751276016235,-0.1693110167980194,0.08767533302307129,-0.6217442154884338,XArbitraryZVertical,-0.2013253999458077,0.0006343271845205773,0.7157937064392197,0.6686605875137285,0.2890632152557373,0.2683286368846893,-0.9189353585243225,29286.441947125,unknown,2,2020-03-06 13:47:44.787 +0100,605191668.1376497,0,-8.96,98.78668
2020-03-06 13:47:49.107 +0100,29290.761021375,0.078460693359375,0.444671630859375,-1.37353515625,29290.740922375,1.694311430473622,0.2603621446859047,-0.2661903177833049,0.5064698457717896,-2.428925752639771,0.6326799988746643,-0.1497299522161484,0.1428576111793518,-0.5366078615188599,XArbitraryZVertical,-0.1835432144198484,-0.01341411652388075,0.7250813470286118,0.6636180980975562,0.2483638226985931,0.2630578577518463,-0.9322639107704163,29286.441947125,unknown,2,2020-03-06 13:47:44.787 +0100,605191668.1376497,0,-8.96,98.78668
2020-03-06 13:47:49.127 +0100,29290.781119375,0.079620361328125,0.3667449951171875,-1.289443969726562,29290.761021375,1.701311279959802,0.2132157505513432,-0.2433563486063285,1.542838454246521,-2.416048765182495,0.5546184778213501,-0.1236877292394638,0.1969363838434219,-0.4465228915214539,XArbitraryZVertical,-0.1589886844592202,-0.02106858595647813,0.7334013847680074,0.6606066676374999,0.2053689509630203,0.2409614324569702,-0.948557436466217,29286.441947125,unknown,2,2020-03-06 13:47:44.787 +0100,605191668.1376497,0,-8.96,98.78668
2020-03-06 13:47:49.147 +0100,29290.801218375,0.07525634765625,0.243743896484375,-1.263534545898438,29290.781119375,1.704554575262903,0.1659001616378828,-0.2025158808995912,2.29868221282959,-2.368009567260742,0.5203604698181152,-0.08090828359127045,0.1989061683416367,-0.3389849662780762,XArbitraryZVertical,-0.1283646947870808,-0.02157163311359827,0.7408371543860516,0.6589518088338376,0.1617653369903564,0.2011344283819199,-0.966114342212677,29286.441947125,unknown,2,2020-03-06 13:47:44.787 +0100,605191668.1376497,0,-8.96,98.78668
2020-03-06 13:47:49.176 +0100,29290.821317375,0.1253662109375,0.2277069091796875,-1.27789306640625,29290.801218375,1.708065755636198,0.1189727881207372,-0.1524596278018976,2.543135166168213,-2.375057220458984,0.5219782590866089,-0.04211968928575516,0.1108568757772446,-0.2760173082351685,XArbitraryZVertical,-0.09463435735911796,-0.0183721957538217,0.7474423564148652,0.6572949598842233,0.1173155531287193,0.1518696844577789,-0.9814136028289795,29286.441947125,unknown,2,2020-03-06 13:47:44.787 +0100,605191668.1376497,0,-8.96,98.78668
2020-03-06 13:47:49.188 +0100,29290.841416375,0.1765594482421875,0.2014007568359375,-1.178955078125,29290.821317375,1.71369430963591,0.07153833183164547,-0.09678082247536969,2.996798515319824,-2.409305810928345,0.5652573704719543,0.03676765412092209,0.1231887713074684,-0.2941211462020874,XArbitraryZVertical,-0.05865083821585464,-0.01314484936712872,0.7532814448586357,0.6549460325836054,0.07114284485578537,0.09662981331348419,-0.9927746057510376,29286.441947125,unknown,2,2020-03-06 13:47:44.787 +0100,605191668.1376497,0,-8.96,98.78668
2020-03-06 13:47:49.208 +0100,29290.861515375,0.124481201171875,0.0051422119140625,-1.137985229492188,29290.841416375,1.722648578023812,0.02315054340055646,-0.02908069523086656,3.675026893615723,-2.460192203521729,0.6538410782814026,0.1504607051610947,0.2024299502372742,-0.202427089214325,XArbitraryZVertical,-0.01825220130361355,-0.003491168693571575,0.7584652507070877,0.6514484437125443,0.02313868887722492,0.0290765967220068,-0.9993093609809875,29286.441947125,unknown,2,2020-03-06 13:47:44.787 +0100,605191668.1376497,0,-8.96,98.78668
2020-03-06 13:47:49.228 +0100,29290.881613375,0.038726806640625,-0.1817169189453125,-1.030014038085938,29290.861515375,1.73706611953872,-0.02767169467301725,0.04988509969545249,4.13818359375,-2.583786249160767,0.7583991289138794,0.1714019775390625,0.102995365858078,-0.1529020071029663,XArbitraryZVertical,0.02666677259221884,0.0101027429743432,0.762848808623374,0.6459477094421759,-0.02763374336063862,-0.04986441135406494,-0.9983736276626587,29286.441947125,unknown,2,2020-03-06 13:47:44.787 +0100,605191668.1376497,0,-8.96,98.78668
2020-03-06 13:47:49.248 +0100,29290.901712375,-0.0028533935546875,-0.3127288818359375,-0.8702545166015625,29290.881613375,1.758510078733647,-0.08211359859084823,0.1326607607086082,4.091704368591309,-2.604789018630981,0.9128191471099854,0.1398178189992905,-0.007895767688751221,-0.07999742031097412,XArbitraryZVertical,0.0737800831218762,0.02489338472010834,0.766187517989255,0.6378820967865976,-0.08130066841840744,-0.1322719901800156,-0.9878736138343811,29286.441947125,unknown,2,2020-03-06 13:47:44.787 +0100,605191668.1376497,0,-8.96,98.78668
2020-03-06 13:47:49.269 +0100,29290.921811375,-0.051025390625,-0.2796173095703125,-0.7245635986328125,29290.901712375,1.786642313191781,-0.1385787692472349,0.2061619487212297,3.423510313034058,-2.529348134994507,1.040364146232605,0.1392382234334946,-0.08089493215084076,0.06767630577087402,XArbitraryZVertical,0.1180027178790845,0.03681440471290787,0.7686966812979176,0.627555119473842,-0.1352104544639587,-0.2047046422958374,-0.9694401025772095,29286.441947125,unknown,2,2020-03-06 13:47:44.787 +0100,605191668.1376497,0,-8.96,98.78668
2020-03-06 13:47:49.291 +0100,29290.941910375,-0.1024169921875,-0.2724609375,-0.656768798828125,29290.921811375,1.820095501113452,-0.1957659823184686,0.2628681769041861,2.751529455184937,-2.357208490371704,1.194830536842346,0.1510004550218582,-0.044852614402771,0.1954034566879272,XArbitraryZVertical,0.156538137795607,0.04351933714786356,0.7711164460195823,0.6156145639794964,-0.1878359913825989,-0.2598512768745422,-0.9472037553787231,29286.441947125,unknown,2,2020-03-06 13:47:44.787 +0100,605191668.1376497,0,-8.96,98.78668
2020-03-06 13:47:49.309 +0100,29290.962009375,-0.151885986328125,-0.417816162109375,-0.5719146728515625,29290.941910375,1.857969296226641,-0.2508747723257501,0.3099424834481932,2.692344903945923,-2.041711807250977,1.320924401283264,0.1465014815330505,0.05230173468589783,0.2555922269821167,XArbitraryZVertical,0.1906889388016248,0.04866776238728655,0.7736347190360969,0.6022942942525004,-0.2364225387573242,-0.3050038516521454,-0.9225383400917053,29286.441947125,unknown,2,2020-03-06 13:47:44.787 +0100,605191668.1376497,0,-8.96,98.78668
2020-03-06 13:47:49.328 +0100,29290.982107375,-0.177947998046875,-0.4648895263671875,-0.4841156005859375,29290.962009375,1.902992829555192,-0.3026214944557756,0.3535516910457848,2.561833381652832,-1.628597021102905,1.570315837860107,0.1376978754997253,-0.03455254435539246,0.297648549079895,XArbitraryZVertical,0.2217399762683305,0.05542895533330962,0.7770495771353099,0.5864750035691574,-0.279590517282486,-0.346231997013092,-0.8955180048942566,29286.441947125,unknown,2,2020-03-06 13:47:44.787 +0100,605191668.1376497,0,-8.96,98.78668
2020-03-06 13:47:49.349 +0100,29291.002206375,-0.1767578125,-0.33831787109375,-0.3994293212890625,29290.982107375,1.952054955135916,-0.3484850331768427,0.3868667707573525,2.013590335845947,-1.165359377861023,1.652852416038513,0.1397686302661896,-0.09405702352523804,0.3633038401603699,XArbitraryZVertical,0.2469926171432943,0.06148228262283149,0.7818501608774926,0.5691440086482258,-0.3162378966808319,-0.3772886097431183,-0.8704291582107544,29286.441947125,unknown,2,2020-03-06 13:47:44.787 +0100,605191668.1376497,0,-8.96,98.78668
2020-03-06 13:47:49.368 +0100,29291.022305375,-0.1694183349609375,-0.2569427490234375,-0.3589630126953125,29291.002206375,2.00019191097983,-0.3858308503469364,0.4090874224895,1.695171117782593,-0.6799344420433044,1.660125494003296,0.167173832654953,0.02048161625862122,0.4326938390731812,XArbitraryZVertical,0.2656688228760813,0.06634683691797783,0.787657420068643,0.5519184718685397,-0.3452759385108948,-0.3977722227573395,-0.8500363230705261,29286.441947125,unknown,2,2020-03-06 13:47:44.787 +0100,605191668.1376497,0,-8.96,98.78668
2020-03-06 13:47:49.389 +0100,29291.042404375,-0.1787567138671875,-0.31463623046875,-0.3191680908203125,29291.022305375,2.047895291527699,-0.414179841902251,0.428172290544554,1.772322654724121,-0.2068439573049545,1.597576975822449,0.1949653029441833,0.14874267578125,0.4598817229270935,XArbitraryZVertical,0.279733858177234,0.07311685977097578,0.7941183226045833,0.5345829561961837,-0.3661095201969147,-0.4152087867259979,-0.8328058123588562,29286.441947125,unknown,2,2020-03-06 13:47:44.787 +0100,605191668.1376497,0,-8.96,98.78668
2020-03-06 13:47:49.409 +0100,29291.062503375,-0.1544189453125,-0.374847412109375,-0.30950927734375,29291.042404375,2.096724757574356,-0.4341457793074698,0.4479535977936312,1.759446144104004,0.2752303779125214,1.595387697219849,0.2001617252826691,0.1386254131793976,0.4935001730918884,XArbitraryZVertical,0.2902103834978915,0.08317962435543187,0.8012617445422024,0.5165642976623653,-0.3791337013244629,-0.4331219494342804,-0.8177181482315063,29286.441947125,unknown,2,2020-03-06 13:47:44.787 +0100,605191668.1376497,0,-8.96,98.78668
2020-03-06 13:47:49.429 +0100,29291.082601375,-0.117340087890625,-0.3308563232421875,-0.337921142578125,29291.062503375,2.143472217274026,-0.4449821042046033,0.4629482041847749,1.315505504608154,0.6783238649368286,1.548153638839722,0.2190854251384735,0.06821367144584656,0.4969557523727417,XArbitraryZVertical,0.295669872588842,0.09367525322922249,0.8093216011752087,0.4988014251068763,-0.3851333260536194,-0.4465879201889038,-0.8076085448265076,29286.441947125,unknown,2,2020-03-06 13:47:44.787 +0100,605191668.1376497,0,-8.96,98.78668
2020-03-06 13:47:49.449 +0100,29291.102700375,-0.103759765625,-0.291473388671875,-0.3715057373046875,29291.082601375,2.184873316073395,-0.4469637814617978,0.4692662267975749,0.9025962352752686,0.9678623080253601,1.497033715248108,0.2634183764457703,0.1073201894760132,0.4742670655250549,XArbitraryZVertical,0.2957155009067933,0.1020329067453586,0.8182363522139651,0.4823181180570579,-0.3855057060718536,-0.4522319436073303,-0.8042832612991333,29286.441947125,unknown,2,2020-03-06 13:47:44.787 +0100,605191668.1376497,0,-8.96,98.78668
2020-03-06 13:47:49.469 +0100,29291.122799375,-0.07366943359375,-0.2977294921875,-0.41131591796875,29291.102700375,2.22308436172661,-0.4424898278309292,0.4720139862864596,0.8394588232040405,1.190467238426208,1.438285112380981,0.2735954225063324,0.1536687016487122,0.4402050971984863,XArbitraryZVertical,0.2923756404702202,0.1099067664404039,0.8275463034988891,0.466480543578925,-0.3813700377941132,-0.4546809792518616,-0.8048740029335022,29286.441947125,unknown,2,2020-03-06 13:47:44.787 +0100,605191668.1376497,0,-8.96,98.78668
2020-03-06 13:47:49.489 +0100,29291.142898375,-0.027313232421875,-0.2431793212890625,-0.3121337890625,29291.122799375,2.260306940565512,-0.4330094406815848,0.4759551657157523,0.9576001167297363,1.426308751106262,1.374164700508118,0.2855941355228424,0.1719917058944702,0.4208654165267944,XArbitraryZVertical,0.2870212184831933,0.1191999236711462,0.8368666298940411,0.4506265858997629,-0.3729676604270935,-0.4581876695156097,-0.8068203926086426,29286.441947125,unknown,2,2020-03-06 13:47:44.787 +0100,605191668.1376497,0,-8.96,98.78668
2020-03-06 13:47:49.509 +0100,29291.162997375,0.206268310546875,-0.41357421875,-0.9723358154296875,29291.142898375,2.29832678798615,-0.4216345839038242,0.484985533082345,1.179907321929932,1.433517813682556,1.259782552719116,0.3267782330513,0.1305916309356689,0.3338907957077026,XArbitraryZVertical,0.2814413770350718,0.1311090972647787,0.8455527493375153,0.4343288967403578,-0.3620581328868866,-0.4661955535411835,-0.8072023391723633,29286.441947125,unknown,2,2020-03-06 13:47:44.787 +0100,605191668.1376497,0,-8.96,98.78668
2020-03-06 13:47:49.529 +0100,29291.183095375,-0.02880859375,-0.26275634765625,-0.7861175537109375,29291.162997375,2.337603056935491,-0.4102892884527911,0.5043184164564671,2.335673809051514,1.298594951629639,1.121798992156982,0.4891226291656494,0.001229256391525269,0.07270979881286621,XArbitraryZVertical,0.2771105047897066,0.1476102326667789,0.8526073280951701,0.4177100602906251,-0.3492163419723511,-0.4832108318805695,-0.8028419613838196,29286.441947125,unknown,2,2020-03-06 13:47:44.787 +0100,605191668.1376497,0,-8.96,98.78668
2020-03-06 13:47:49.549 +0100,29291.203194375,0.075714111328125,-0.2418975830078125,-0.710357666015625,29291.183095375,2.376403641294279,-0.4050544651844277,0.5399034102468736,2.366313219070435,1.312996745109558,0.7057668566703796,0.3535476922988892,0.4935123920440674,0.1590473055839539,XArbitraryZVertical,0.2773707353788323,0.1699729720046319,0.8558008959832509,0.4022181713066658,-0.3380158245563507,-0.5140531659126282,-0.7883493304252625,29286.441947125,unknown,2,2020-03-06 13:47:44.787 +0100,605191668.1376497,0,-8.96,98.78668
2020-03-06 13:47:49.569 +0100,29291.223293375,0.12078857421875,-0.5259246826171875,-0.9834136962890625,29291.203194375,2.408871025495282,-0.4007100658077277,0.5710045008242992,1.469579577445984,0.936314582824707,0.5337378978729248,0.3848755061626434,0.2572107315063477,0.1330785751342773,XArbitraryZVertical,0.2771591225409164,0.1892828744582024,0.8578446806564954,0.3891750893865928,-0.3281905949115753,-0.540477454662323,-0.7747096419334412,29286.441947125,unknown,2,2020-03-06 13:47:44.787 +0100,605191668.1376497,0,-8.96,98.78668
2020-03-06 13:47:49.590 +0100,29291.243392375,-0.26336669921875,-0.6865234375,-1.04364013671875,29291.223293375,2.430070718612696,-0.3969503062244545,0.5907695954987403,0.9204429984092712,0.5844845175743103,0.3544706404209137,0.5123345851898193,0.1300110816955566,-0.1808105707168579,XArbitraryZVertical,0.2762265414168884,0.2018199589055376,0.8591862294691276,0.3804820604321931,-0.3210823237895966,-0.5570003390312195,-0.7659351825714111,29286.441947125,unknown,2,2020-03-06 13:47:44.787 +0100,605191668.1376497,0,-8.96,98.78668
2020-03-06 13:47:49.610 +0100,29291.263490375,-0.3568572998046875,-0.4460906982421875,-1.114700317382812,29291.243392375,2.442131935035021,-0.3960657232327544,0.5982010457968305,0.3066692054271698,0.1593311131000519,0.3539513647556305,0.1231340765953064,-0.1143054366111755,-0.2716013193130493,XArbitraryZVertical,0.2756157863524129,0.2069939138817903,0.8603447401182474,0.3754947643136739,-0.3187989294528961,-0.5631568431854248,-0.7623789310455322,29286.441947125,unknown,2,2020-03-06 13:47:44.787 +0100,605191668.1376497,0,-8.96,98.78668
2020-03-06 13:47:49.630 +0100,29291.283589375,-0.3238677978515625,-0.6485443115234375,-1.21893310546875,29291.263490375,2.456966673461589,-0.4041475906183333,0.6041154128504327,0.8244668245315552,-0.09608706086874008,0.4419606924057007,-0.03792396187782288,0.0672534704208374,-0.3406786322593689,XArbitraryZVertical,0.278321677171696,0.2102048727647235,0.8609934466442029,0.370190790255686,-0.3236344754695892,-0.568034291267395,-0.7567018866539001,29286.441947125,unknown,2,2020-03-06 13:47:44.787 +0100,605191668.1376497,0,-8.96,98.78668
2020-03-06 13:47:49.650 +0100,29291.303688375,-0.5062255859375,-0.9581451416015625,-0.915069580078125,29291.283589375,2.476129832905544,-0.4191589161544189,0.6210887679587724,1.309849858283997,-0.3338480293750763,0.3652914464473724,0.004261791706085205,0.06874972581863403,-0.4233534932136536,XArbitraryZVertical,0.2848575507538318,0.2177938738746663,0.8594872117474162,0.3642853093247755,-0.3309846222400665,-0.5819209218025208,-0.7428439855575562,29286.441947125,unknown,2,2020-03-06 13:47:44.787 +0100,605191668.1376497,0,-8.96,98.78668
2020-03-06 13:47:49.685 +0100,29291.323787375,-0.7266845703125,-0.8228912353515625,-0.692108154296875,29291.323787375,2.517586492211791,-0.4673772827741021,0.6517690021927849,0.6267753839492798,-0.5331972241401672,0.4183815717697144,-0.3236662149429321,-0.2942730188369751,-0.01473653316497803,XArbitraryZVertical,0.3043909619045139,0.2290665442055018,0.854365134189401,0.3534612085032486,-0.3581897616386414,-0.6065937280654907,-0.7097493410110474,29286.441947125,unknown,2,2020-03-06 13:47:44.787 +0100,605191668.1376497,0,-8.96,98.78668
2020-03-06 13:47:49.690 +0100,29291.343886375,-0.7018280029296875,-0.654144287109375,-0.7216033935546875,29291.323787375,2.517586492211791,-0.4673772827741021,0.6517690021927849,0.6267753839492798,-0.5331972241401672,0.4183815717697144,-0.3236662149429321,-0.2942730188369751,-0.01473653316497803,XArbitraryZVertical,0.3043909619045139,0.2290665442055018,0.854365134189401,0.3534612085032486,-0.3581897616386414,-0.6065937280654907,-0.7097493410110474,29286.441947125,unknown,2,2020-03-06 13:47:44.787 +0100,605191668.1376497,0,-8.96,98.78668
2020-03-06 13:47:49.711 +0100,29291.363984375,-0.393218994140625,-0.8510284423828125,-0.711669921875,29291.343886375,2.531795531955064,-0.4827118366048445,0.6604942929688002,0.8614299297332764,-0.1920293569564819,0.2299742251634598,-0.4031254649162292,-0.009267985820770264,0.02407562732696533,XArbitraryZVertical,0.3102000455601754,0.2324792272502564,0.8529098737264742,0.3496769440427835,-0.3665601015090942,-0.6135072708129883,-0.6994586586952209,29286.441947125,unknown,2,2020-03-06 13:47:44.787 +0100,605191668.1376497,0,-8.96,98.78668
2020-03-06 13:47:49.731 +0100,29291.384083375,-0.413482666015625,-0.96856689453125,-0.4651947021484375,29291.363984375,2.55020525005841,-0.4973951118011682,0.6758524177859145,0.9490583539009094,-0.152357429265976,0.3063225746154785,-0.06529703736305237,-0.1551259756088257,-0.04520964622497559,XArbitraryZVertical,0.3157798080786815,0.2397156377429169,0.8509528521604287,0.344526725983435,-0.3722505569458008,-0.6255625486373901,-0.6856390237808228,29286.441947125,unknown,2,2020-03-06 13:47:44.787 +0100,605191668.1376497,0,-8.96,98.78668
2020-03-06 13:47:49.751 +0100,29291.404182375,-0.6199951171875,-0.7695770263671875,-0.1791839599609375,29291.384083375,2.56574662132462,-0.5103151730070133,0.682925446509713,0.2580116093158722,-0.1242618560791016,0.4454786479473114,0.005644798278808594,-0.3555254936218262,0.1306467056274414,XArbitraryZVertical,0.3200462801278164,0.243152402322023,0.8502264299858304,0.3399443972096063,-0.3789070248603821,-0.6310650706291199,-0.6768946051597595,29286.441947125,unknown,2,2020-03-06 13:47:44.787 +0100,605191668.1376497,0,-8.96,98.78668
2020-03-06 13:47:49.771 +0100,29291.424281375,-0.6650238037109375,-0.67767333984375,0.068389892578125,29291.404182375,2.579509088870511,-0.5181310468076151,0.6791260314970389,0.04568071663379669,0.2422061711549759,0.660262405872345,-0.2036051154136658,-0.2011286020278931,0.4369630813598633,XArbitraryZVertical,0.3213708582198433,0.2423334141076967,0.8520113483668278,0.3347714432989124,-0.3853706121444702,-0.6281132102012634,-0.6759905815124512,29286.441947125,unknown,2,2020-03-06 13:47:44.787 +0100,605191668.1376497,0,-8.96,98.78668
2020-03-06 13:47:49.791 +0100,29291.444380375,-0.2741241455078125,0.97601318359375,-1.5679931640625,29291.424281375,2.598733597965081,-0.5201837298735602,0.674909032211237,0.248233437538147,0.7716621160507202,0.8311417102813721,-0.2686848044395447,-0.05329239368438721,0.6607682704925537,XArbitraryZVertical,0.3195624129406517,0.2431761174126915,0.8556509413582146,0.3265067150371814,-0.3880704939365387,-0.6248263120651245,-0.6774904727935791,29286.441947125,unknown,2,2020-03-06 13:47:44.787 +0100,605191668.1376497,0,-8.96,98.78668
2020-03-06 13:47:49.811 +0100,29291.464478375,1.036727905273438,-0.082000732421875,-0.6302947998046875,29291.444380375,2.612262153186617,-0.5137334753073591,0.6701649197662307,-0.2900960743427277,0.2648098170757294,-0.3693125247955322,-0.1765633225440979,0.6888156533241272,0.2205798029899597,XArbitraryZVertical,0.3147673015502027,0.2442228476307179,0.8597402756981893,0.319567516350134,-0.3851448893547058,-0.6211152672767639,-0.6825534701347351,29286.441947125,unknown,2,2020-03-06 13:47:44.787 +0100,605191668.1376497,0,-8.96,98.78668
2020-03-06 13:47:49.831 +0100,29291.484577375,-0.243865966796875,-1.406295776367188,-0.4018402099609375,29291.464478375,2.578474024352521,-0.4922087919814372,0.6747434270647324,2.110334634780884,0.3517937064170837,0.2565394937992096,1.241452217102051,1.892577409744263,0.1506667137145996,XArbitraryZVertical,0.3100420266038165,0.2445163181078674,0.8567510771368604,0.3317578463603487,-0.3690172731876373,-0.6246969699859619,-0.6881714463233948,29286.441947125,unknown,2,2020-03-06 13:47:44.787 +0100,605191668.1376497,0,-8.96,98.78668
2020-03-06 13:47:49.852 +0100,29291.504676375,-0.4506683349609375,-1.0489501953125,-0.6428985595703125,29291.484577375,2.619224768325744,-0.5196649970854292,0.7104383966615555,-0.2694387137889862,-0.3004354536533356,-0.4504403173923492,0.588273286819458,-0.764615535736084,-0.06460976600646973,XArbitraryZVertical,0.3195046791571906,0.2625209240140043,0.8522947101774282,0.3203016971941206,-0.3764525055885315,-0.6521661877632141,-0.6579990386962891,29286.441947125,unknown,2,2020-03-06 13:47:44.787 +0100,605191668.1376497,0,-8.96,98.78668
2020-03-06 13:47:49.871 +0100,29291.524775375,-0.6639556884765625,0.237396240234375,-0.919189453125,29291.504676375,2.582777698668214,-0.5079374130598518,0.6733125154224513,-2.902610540390015,-0.7961494326591492,0.3937634229660034,-0.1423247158527374,-0.7681477069854736,-0.02083897590637207,XArbitraryZVertical,0.3161257615139462,0.2419362217041873,0.8552692521901649,0.331731543879366,-0.3802295327186584,-0.6235790252685547,-0.683062732219696,29286.441947125,unknown,2,2020-03-06 13:47:44.787 +0100,605191668.1376497,0,-8.96,98.78668
2020-03-06 13:47:49.891 +0100,29291.544874375,-0.4671630859375,-0.527252197265625,-0.7600860595703125,29291.524775375,2.562929079916271,-0.5089777653979355,0.6289143482627104,-1.07415783405304,-0.5997141003608704,0.2243735492229462,-0.2238861620426178,0.8193585872650146,-0.01397454738616943,XArbitraryZVertical,0.3148598663059055,0.218590960382617,0.8598655227428355,0.3372127354791656,-0.3940509855747223,-0.5882671475410461,-0.7061625123023987,29286.441947125,unknown,2,2020-03-06 13:47:44.787 +0100,605191668.1376497,0,-8.96,98.78668
2020-03-06 13:47:49.911 +0100,29291.564972375,-0.295013427734375,-0.8767242431640625,-0.749053955078125,29291.544874375,2.574057647266147,-0.5247910047069646,0.6299234425518696,0.5642292499542236,-0.4905318319797516,0.4177332520484924,-0.1147851347923279,0.2317951917648315,-0.01732873916625977,XArbitraryZVertical,0.3205330082757622,0.2181604742602519,0.8590422176059971,0.3342320056822827,-0.4048703610897064,-0.5890828967094421,-0.6993291974067688,29286.441947125,unknown,2,2020-03-06 13:47:44.787 +0100,605191668.1376497,0,-8.96,98.78668
2020-03-06 13:47:49.932 +0100,29291.585071375,-0.38623046875,-0.5480499267578125,-0.715850830078125,29291.564972375,2.586861179975051,-0.5434309301803385,0.6306873890935113,-0.1701134145259857,-0.5677187442779541,0.4332464039325714,0.07841214537620544,-0.3638705611228943,-0.03975576162338257,XArbitraryZVertical,0.3272071119495851,0.2174799017443154,0.8580162589162913,0.3308263432145753,-0.4176018834114075,-0.5897000432014465,-0.6912760138511658,29286.441947125,unknown,2,2020-03-06 13:47:44.787 +0100,605191668.1376497,0,-8.96,98.78668
2020-03-06 13:47:49.952 +0100,29291.605170375,-0.503936767578125,-0.59942626953125,-0.691162109375,29291.585071375,2.589545193849964,-0.554843476500774,0.6220423861450668,-0.3301334381103516,-0.3639280796051025,0.184241384267807,0.1027832925319672,-0.03817182779312134,-0.01923245191574097,XArbitraryZVertical,0.33108126997007,0.212129381378412,0.8581192430443672,0.3301781361502892,-0.4281334578990936,-0.5826961994171143,-0.6907726526260376,29291.582709375,unknown,2,2020-03-06 13:47:49.928 +0100,605191668.1376497,0,-8.96,98.78668
2020-03-06 13:47:49.972 +0100,29291.625269375,-0.4499053955078125,-0.5545501708984375,-0.7496337890625,29291.605170375,2.589270972720901,-0.5599491512435422,0.618643916037265,-0.06819970160722733,-0.1755824089050293,0.009383526630699635,-0.06412440538406372,-0.002957940101623535,-0.01133060455322266,XArbitraryZVertical,0.3330136455213822,0.209704799045293,0.8578274043537809,0.3305418489171655,-0.4327040314674377,-0.5799309611320496,-0.6902515888214111,29291.582709375,unknown,2,2020-03-06 13:47:49.928 +0100,605191668.1376497,0,-8.96,98.78668
2020-03-06 13:47:49.993 +0100,29291.645368375,-0.44818115234375,-0.5128173828125,-0.7293243408203125,29291.625269375,2.588222155892992,-0.5621441060113537,0.6174766207223622,-0.1015162467956543,-0.113909438252449,0.01360120717436075,-0.03237313032150269,-0.01216429471969604,-0.04303604364395142,XArbitraryZVertical,0.3339660744229233,0.2086394481430553,0.8574939953507644,0.3311196223476066,-0.4345785677433014,-0.5789796113967896,-0.6898725032806396,29291.582709375,unknown,2,2020-03-06 13:47:49.928 +0100,605191668.1376497,0,-8.96,98.78668
2020-03-06 13:47:50.013 +0100,29291.665467375,-0.425384521484375,-0.688446044921875,-0.70703125,29291.645368375,2.587660321555155,-0.563709697336031,0.615877706870516,-0.2263108193874359,-0.07552403956651688,-9.442679584026337e-06,0.001243680715560913,0.05135041475296021,-0.03286468982696533,XArbitraryZVertical,0.3345605701932448,0.207563901517672,0.8574213239862133,0.3313835772602497,-0.4361521899700165,-0.5776751637458801,-0.6899728775024414,29291.582709375,unknown,2,2020-03-06 13:47:49.928 +0100,605191668.1376497,0,-8.96,98.78668
2020-03-06 13:47:50.032 +0100,29291.685565375,-0.3958587646484375,-0.50970458984375,-0.69305419921875,29291.665467375,2.582762657837566,-0.5636396844162663,0.6096431111226773,-0.5053600072860718,-0.2194393575191498,0.03134065866470337,-0.008622884750366211,-0.1000052690505981,-0.05678075551986694,XArbitraryZVertical,0.3345018585095185,0.2039394236168391,0.8577149639036288,0.332929554746266,-0.4380195736885071,-0.5725749135017395,-0.6930344104766846,29291.582709375,unknown,2,2020-03-06 13:47:49.928 +0100,605191668.1376497,0,-8.96,98.78668
2020-03-06 13:47:50.052 +0100,29291.705664375,-0.4217529296875,-0.5395660400390625,-0.59979248046875,29291.685565375,2.575962594875283,-0.5649566416106448,0.5999271087181443,-0.5229734778404236,-0.2859819531440735,-0.008017001673579216,0.04352575540542603,0.01173770427703857,0.001674890518188477,XArbitraryZVertical,0.3349016417081185,0.1981903318798437,0.8580521500976435,0.3351238145372346,-0.4418895542621613,-0.5645822882652283,-0.6971229910850525,29291.582709375,unknown,2,2020-03-06 13:47:49.928 +0100,605191668.1376497,0,-8.96,98.78668
2020-03-06 13:47:50.072 +0100,29291.725763375,-0.4659576416015625,-0.5191802978515625,-0.7529754638671875,29291.705664375,2.5697027229699,-0.5673950643150275,0.593187391081743,-0.3696176707744598,-0.3217613101005554,-0.07070997357368469,0.03674599528312683,0.05764538049697876,0.040821373462677,XArbitraryZVertical,0.3359586607105169,0.1936842277380259,0.8577557117845311,0.3374510712821247,-0.4456230103969574,-0.5590067505836487,-0.6992363929748535,29291.582709375,unknown,2,2020-03-06 13:47:49.928 +0100,605191668.1376497,0,-8.96,98.78668
2020-03-06 13:47:50.092 +0100,29291.745862375,-0.416107177734375,-0.5788726806640625,-0.7710418701171875,29291.725763375,2.564180272637836,-0.5705538874815524,0.5893671668028658,-0.1747209131717682,-0.3192526698112488,-0.1269516497850418,-0.03588622808456421,0.004272222518920898,-0.03892147541046143,XArbitraryZVertical,0.3374959517774704,0.1904934504473241,0.8569464968833844,0.3397813713144392,-0.4489797055721283,-0.5558350682258606,-0.6996174454689026,29291.582709375,unknown,2,2020-03-06 13:47:49.928 +0100,605191668.1376497,0,-8.96,98.78668
2020-03-06 13:47:50.112 +0100,29291.765960375,-0.4533538818359375,-0.6165924072265625,-0.688079833984375,29291.745862375,2.557730007334018,-0.5729249597142261,0.588614076542175,-0.3094578683376312,-0.3172423541545868,-0.2776142358779907,0.03385394811630249,0.00929182767868042,-0.06220418214797974,XArbitraryZVertical,0.3390530614980254,0.1886578552418257,0.855574449713487,0.3427003230491897,-0.4508640468120575,-0.5552088618278503,-0.6989024877548218,29291.582709375,unknown,2,2020-03-06 13:47:49.928 +0100,605191668.1376497,0,-8.96,98.78668
2020-03-06 13:47:50.132 +0100,29291.786059375,-0.535980224609375,-0.5912628173828125,-0.8255157470703125,29291.765960375,2.543320696782325,-0.5714583323859905,0.5840960295207526,-0.8023310303688049,-0.3141737580299377,-0.4682537913322449,0.01181137561798096,-0.08324694633483887,-0.04697459936141968,XArbitraryZVertical,0.3393421532700925,0.1844289510800281,0.8541108348737541,0.3483209684663578,-0.4511906802654266,-0.551445484161377,-0.7016657590866089,29291.582709375,unknown,2,2020-03-06 13:47:49.928 +0100,605191668.1376497,0,-8.96,98.78668
2020-03-06 13:47:50.153 +0100,29291.806158375,-0.453216552734375,-0.4854888916015625,-0.87823486328125,29291.786059375,2.51888259392186,-0.5637038932317067,0.5759183416074128,-0.7038573622703552,-0.2487619966268539,-0.7820767164230347,-0.07949012517929077,-0.0652611255645752,-0.09576964378356934,XArbitraryZVertical,0.3374295604149901,0.1779762149443402,0.8525118633859284,0.3573361457775776,-0.44813072681427,-0.5446052551269531,-0.7089315056800842,29291.582709375,unknown,2,2020-03-06 13:47:49.928 +0100,605191668.1376497,0,-8.96,98.78668
2020-03-06 13:47:50.178 +0100,29291.826257375,-0.3628997802734375,-0.6892547607421875,-0.8437957763671875,29291.806158375,2.490015186963783,-0.552384108570129,0.5756579395343789,-0.5579884648323059,-0.1709138751029968,-1.272619009017944,-0.03888523578643799,0.1173665523529053,-0.1407773494720459,XArbitraryZVertical,0.3351334242062844,0.1750595793589547,0.8492207760197874,0.3685969963261915,-0.4401516616344452,-0.5443868041038513,-0.7140794396400452,29291.582709375,unknown,2,2020-03-06 13:47:49.928 +0100,605191668.1376497,0,-8.96,98.78668
2020-03-06 13:47:50.193 +0100,29291.846356375,-0.2225799560546875,-0.7575225830078125,-0.958709716796875,29291.826257375,2.458110645994778,-0.5366029483199521,0.5842210179460722,-0.3183664083480835,-0.01650195568799973,-1.386403560638428,0.04399615526199341,-0.1295903921127319,-0.1610856056213379,XArbitraryZVertical,0.3322392172604435,0.1765370272206641,0.8443962376226392,0.3813748524619459,-0.4264295101165771,-0.5515497922897339,-0.7169035673141479,29291.582709375,unknown,2,2020-03-06 13:47:49.928 +0100,605191668.1376497,0,-8.96,98.78668
2020-03-06 13:47:50.213 +0100,29291.866454375,-0.1689453125,-0.7866363525390625,-1.045654296875,29291.846356375,2.423150361808053,-0.5203858735241212,0.5879495154839827,-0.6480443477630615,-0.2994984984397888,-1.330807209014893,0.1498042941093445,-0.1857950687408447,-0.2953210473060608,XArbitraryZVertical,0.3289481411620084,0.1755720394907091,0.8396434977095687,0.3949257471266954,-0.4137224853038788,-0.5546560287475586,-0.7219351530075073,29291.582709375,unknown,2,2020-03-06 13:47:49.928 +0100,605191668.1376497,0,-8.96,98.78668
2020-03-06 13:47:50.233 +0100,29291.886553375,-0.3094635009765625,-0.8135223388671875,-0.9488525390625,29291.886553375,2.368816426276949,-0.5094964769246495,0.596498809875596,-0.1701269149780273,-0.7520433664321899,-0.8850671052932739,0.1496922671794891,-0.2449095249176025,-0.2200890779495239,XArbitraryZVertical,0.3302793832115255,0.1726263967192767,0.8289037080707117,0.4171741484860561,-0.4035090804100037,-0.5617493391036987,-0.7222313284873962,29291.582709375,unknown,2,2020-03-06 13:47:49.928 +0100,605191668.1376497,0,-8.96,98.78668
2020-03-06 13:47:50.253 +0100,29291.906652375,-0.48956298828125,-0.9171142578125,-0.859100341796875,29291.886553375,2.368816426276949,-0.5094964769246495,0.596498809875596,-0.1701269149780273,-0.7520433664321899,-0.8850671052932739,0.1496922671794891,-0.2449095249176025,-0.2200890779495239,XArbitraryZVertical,0.3302793832115255,0.1726263967192767,0.8289037080707117,0.4171741484860561,-0.4035090804100037,-0.5617493391036987,-0.7222313284873962,29291.582709375,unknown,2,2020-03-06 13:47:49.928 +0100,605191668.1376497,0,-8.96,98.78668
2020-03-06 13:47:50.273 +0100,29291.926751375,-0.4641265869140625,-0.6107025146484375,-0.6832275390625,29291.906652375,2.35613537321082,-0.5187004980862461,0.6056360728479486,0.6681323647499084,-0.9254979491233826,-0.4392127990722656,-0.03512778878211975,-0.237267017364502,-0.1544837951660156,XArbitraryZVertical,0.336459941352107,0.1726125523767035,0.8230722466013719,0.4237353319380509,-0.4075776040554047,-0.5692851543426514,-0.7139992117881775,29291.582709375,unknown,2,2020-03-06 13:47:49.928 +0100,605191668.1376497,0,-8.96,98.78668
2020-03-06 13:47:50.293 +0100,29291.946850375,-0.4062652587890625,-0.414306640625,-0.51318359375,29291.926751375,2.360099897070712,-0.5395552167231092,0.6212466120404215,0.4632859230041504,-0.9361177682876587,-0.2168699204921722,-0.08546054363250732,-0.1476444005966187,-0.01716172695159912,XArbitraryZVertical,0.3468407402087919,0.175738869449155,0.8175055157556614,0.4248553804400028,-0.4177612364292145,-0.5820493102073669,-0.6976346969604492,29291.582709375,unknown,2,2020-03-06 13:47:49.928 +0100,605191668.1376497,0,-8.96,98.78668
2020-03-06 13:47:50.314 +0100,29291.966949375,-0.4789886474609375,-0.4474639892578125,-0.2509613037109375,29291.946850375,2.353709514409608,-0.5544529322034728,0.6254767115821727,-0.3337908983230591,-0.8694427013397217,-0.4253203868865967,0.03166371583938599,0.1531534194946289,0.09765273332595825,XArbitraryZVertical,0.3540494270290628,0.1732969260183777,0.8127459352573019,0.4290235124456152,-0.4268075525760651,-0.5854837894439697,-0.6892343759536743,29291.582709375,unknown,2,2020-03-06 13:47:49.928 +0100,605191668.1376497,0,-8.96,98.78668
2020-03-06 13:47:50.333 +0100,29291.987047375,-0.4068756103515625,-0.3492431640625,-0.1495361328125,29291.966949375,2.336612739063516,-0.5585482582862664,0.6188802528012037,-0.9918822646141052,-0.4876033961772919,-0.3749614059925079,-0.03859883546829224,0.1338313221931458,0.3990402221679688,XArbitraryZVertical,0.3562475659773389,0.1664849484700486,0.8095511078548255,0.4358869211398532,-0.431663990020752,-0.5801234841346741,-0.6907408833503723,29291.582709375,unknown,2,2020-03-06 13:47:49.928 +0100,605191668.1376497,0,-8.96,98.78668
2020-03-06 13:47:50.354 +0100,29292.007146375,-0.3038787841796875,-0.2196044921875,-0.1622467041015625,29291.987047375,2.309193619440967,-0.5491496016375942,0.5974082950113035,-2.000923156738281,-0.1768069416284561,-0.4286929965019226,-0.002070337533950806,0.1960434317588806,0.5632803440093994,XArbitraryZVertical,0.3515275892278543,0.1543136348424766,0.8091279733083304,0.4448905368794074,-0.4315562546253204,-0.5625015497207642,-0.7052313089370728,29291.582709375,unknown,2,2020-03-06 13:47:49.928 +0100,605191668.1376497,0,-8.96,98.78668
2020-03-06 13:47:50.374 +0100,29292.027245375,-0.313201904296875,0.065277099609375,-0.225555419921875,29292.007146375,2.273208732404905,-0.5329752177234024,0.5661407822873527,-1.906700849533081,-0.1692322045564651,-0.5400397777557373,0.1144747138023376,0.2500755786895752,0.5762835144996643,XArbitraryZVertical,0.3427509202692175,0.1380701016962342,0.8094146880129278,0.4564058096538008,-0.4288232624530792,-0.5363789796829224,-0.7269169092178345,29291.582709375,unknown,2,2020-03-06 13:47:49.928 +0100,605191668.1376497,0,-8.96,98.78668
2020-03-06 13:47:50.394 +0100,29292.047344375,-0.3367919921875,-0.2515869140625,-0.4773101806640625,29292.027245375,2.244952800675822,-0.5193372823464116,0.5493698543964943,-0.6070588827133179,0.03054318204522133,-0.658597469329834,0.1104987561702728,0.5705634355545044,0.5463281869888306,XArbitraryZVertical,0.3363414732630875,0.1291227174726636,0.8081252752117641,0.4659776928237553,-0.4232754707336426,-0.522149920463562,-0.7404034733772278,29291.582709375,unknown,2,2020-03-06 13:47:49.928 +0100,605191668.1376497,0,-8.96,98.78668
2020-03-06 13:47:50.414 +0100,29292.067443375,-0.4426422119140625,-0.770660400390625,-0.59539794921875,29292.047344375,2.234775849881003,-0.5132331649346473,0.5595497644975833,0.9675194621086121,0.02050217986106873,-0.5652948021888733,0.09186530113220215,0.4087622165679932,0.3465514779090881,XArbitraryZVertical,0.3362897660367566,0.1332554222009845,0.8050128985275876,0.4702195016970102,-0.4161165952682495,-0.5308046936988831,-0.7383043766021729,29291.582709375,unknown,2,2020-03-06 13:47:49.928 +0100,605191668.1376497,0,-8.96,98.78668
2020-03-06 13:47:50.434 +0100,29292.087541375,-0.5952301025390625,-0.850494384765625,-0.5420379638671875,29292.067443375,2.239713765456143,-0.5180995741426865,0.5847089338623069,1.048216462135315,-0.2315035760402679,-0.2941337525844574,0.004097610712051392,-0.1178152561187744,0.1223874092102051,XArbitraryZVertical,0.3421859298569321,0.1438413760934769,0.8009160440434395,0.4698424653216671,-0.4129588305950165,-0.5519567131996155,-0.72443687915802,29291.582709375,unknown,2,2020-03-06 13:47:49.928 +0100,605191668.1376497,0,-8.96,98.78668
2020-03-06 13:47:50.454 +0100,29292.107640375,-0.794342041015625,-1.040008544921875,-0.5582122802734375,29292.087541375,2.244404965252055,-0.5292638465964852,0.5974246126138006,0.2734010219573975,-0.5577124357223511,0.03188037872314453,-0.1433345377445221,-0.325015127658844,0.1289345026016235,XArbitraryZVertical,0.348428818322472,0.1475288217398173,0.7977948182363533,0.4694209663971516,-0.4174431562423706,-0.5625150203704834,-0.7136651873588562,29291.582709375,unknown,2,2020-03-06 13:47:49.928 +0100,605191668.1376497,0,-8.96,98.78668
2020-03-06 13:47:50.474 +0100,29292.127739375,-0.8407135009765625,-0.013519287109375,-1.63287353515625,29292.107640375,2.249414983262963,-0.5417148223661055,0.5948775847648912,-0.07822072505950928,-0.4579758942127228,0.5255889892578125,-0.3317727148532867,-0.4460499286651611,0.2363725900650024,XArbitraryZVertical,0.3526095706672694,0.1443870507230994,0.7972515181490453,0.4681974186082384,-0.4270337522029877,-0.5604074001312256,-0.7096377611160278,29291.582709375,unknown,2,2020-03-06 13:47:49.928 +0100,605191668.1376497,0,-8.96,98.78668
2020-03-06 13:47:50.494 +0100,29292.147838375,-0.770843505859375,0.100738525390625,-0.8287811279296875,29292.127739375,2.263838813374037,-0.5642388129324277,0.5906214454623487,0.3666360974311829,-1.142494559288025,0.4161083996295929,-0.4181122183799744,0.1690265536308289,-0.6753466129302979,XArbitraryZVertical,0.3598790295008364,0.1398660183908312,0.7973785461415482,0.4638016494419446,-0.4441794455051422,-0.5568773150444031,-0.7018491625785828,29291.582709375,unknown,2,2020-03-06 13:47:49.928 +0100,605191668.1376497,0,-8.96,98.78668
2020-03-06 13:47:50.514 +0100,29292.167937375,-0.5611419677734375,-1.235565185546875,-0.79833984375,29292.147838375,2.268375102062346,-0.5915387622739561,0.5979229333618825,0.4269496202468872,-0.9524106979370117,-0.2335292547941208,-0.3437059819698334,0.9671294093132019,-0.4373877048492432,XArbitraryZVertical,0.3715552804054441,0.1375205248942467,0.7920894138069582,0.464358729189415,-0.4608922898769379,-0.5629270076751709,-0.6860695481300354,29291.582709375,unknown,2,2020-03-06 13:47:49.928 +0100,605191668.1376497,0,-8.96,98.78668
2020-03-06 13:47:50.534 +0100,29292.188035375,-0.284027099609375,-0.8529052734375,-0.934783935546875,29292.167937375,2.275103240704195,-0.6119376382869731,0.6049731995972086,0.08629599213600159,-0.8869343400001526,0.2905619144439697,-0.13059201836586,-0.5006141662597656,-0.09442281723022461,XArbitraryZVertical,0.3802282309413431,0.1370994960460658,0.7884915174108116,0.4635853214358961,-0.4724988341331482,-0.5687400102615356,-0.6732604503631592,29291.582709375,unknown,2,2020-03-06 13:47:49.928 +0100,605191668.1376497,0,-8.96,98.78668
2020-03-06 13:47:50.555 +0100,29292.208134375,-0.0371551513671875,-0.57281494140625,-0.5967559814453125,29292.188035375,2.267800343162045,-0.6298659339480347,0.5848567146781518,-1.716229438781738,-1.333773851394653,0.2835647165775299,0.1227836906909943,-0.4202281832695007,-0.2481728792190552,XArbitraryZVertical,0.3847223349254702,0.1228523531614037,0.7871490915386687,0.466146164425671,-0.4911333620548248,-0.5520799160003662,-0.6737920641899109,29291.582709375,unknown,2,2020-03-06 13:47:49.928 +0100,605191668.1376497,0,-8.96,98.78668
2020-03-06 13:47:50.575 +0100,29292.228233375,-0.2397918701171875,-0.3917694091796875,-0.6021270751953125,29292.208134375,2.248387866543097,-0.6449450310272709,0.5568167592059377,-1.2767573595047,-1.146100401878357,0.05218342319130898,0.4338807463645935,-0.08031141757965088,0.08537065982818604,XArbitraryZVertical,0.3874034768286421,0.1034889588145761,0.7848739591294096,0.4724207943606947,-0.5103451013565063,-0.5284864902496338,-0.6784171462059021,29291.582709375,unknown,2,2020-03-06 13:47:49.928 +0100,605191668.1376497,0,-8.96,98.78668
2020-03-06 13:47:50.595 +0100,29292.248332375,-0.6982421875,-0.565826416015625,-0.729400634765625,29292.228233375,2.229428030264355,-0.659056902445205,0.5433337246691056,-0.8586022853851318,-1.185778379440308,-0.5231995582580566,0.3912619352340698,0.1260902285575867,0.08756446838378906,XArbitraryZVertical,0.3916916534325392,0.0906511700322058,0.7800805376896397,0.479410352192307,-0.5241838693618774,-0.5169925093650818,-0.6767200231552124,29291.582709375,unknown,2,2020-03-06 13:47:49.928 +0100,605191668.1376497,0,-8.96,98.78668
2020-03-06 13:47:50.615 +0100,29292.268431375,-0.660552978515625,-0.496124267578125,-0.6259918212890625,29292.248332375,2.208719055150739,-0.6712572711223361,0.5388638402197851,-0.6731336712837219,-1.098553657531738,-0.5122700333595276,-0.07977139949798584,-0.04207819700241089,-0.07503712177276611,XArbitraryZVertical,0.3965912961290709,0.08171068589431975,0.7734881010339594,0.4876010683531494,-0.533832848072052,-0.5131611824035645,-0.6720774173736572,29291.582709375,unknown,2,2020-03-06 13:47:49.928 +0100,605191668.1376497,0,-8.96,98.78668
2020-03-06 13:47:50.635 +0100,29292.288529375,-0.4903411865234375,-0.434173583984375,-0.752960205078125,29292.268431375,2.188768633484137,-0.6811728109033159,0.5332129810566001,-0.7757631540298462,-0.9062744975090027,-0.4948068857192993,-0.1733368039131165,-0.003082752227783203,0.06044381856918335,XArbitraryZVertical,0.400236622427865,0.07289740471109769,0.7676502762847262,0.4951864245947097,-0.5422878861427307,-0.5083029270172119,-0.6689932346343994,29291.582709375,unknown,2,2020-03-06 13:47:49.928 +0100,605191668.1376497,0,-8.96,98.78668
2020-03-06 13:47:50.655 +0100,29292.308628375,-0.5385284423828125,-0.510528564453125,-0.61187744140625,29292.288529375,2.169138958268611,-0.6890511092219931,0.5291515278149498,-0.6231560111045837,-0.8777312636375427,-0.5668291449546814,0.05061662197113037,0.07788795232772827,-0.06259185075759888,XArbitraryZVertical,0.4032315788381827,0.06527021231802665,0.7619208135348811,0.5026139398038916,-0.5488496422767639,-0.5048010945320129,-0.6662881970405579,29291.582709375,unknown,2,2020-03-06 13:47:49.928 +0100,605191668.1376497,0,-8.96,98.78668
2020-03-06 13:47:50.677 +0100,29292.328727375,-0.645782470703125,-0.5698394775390625,-0.6950836181640625,29292.308628375,2.150237684866256,-0.6964394170177001,0.5299330941210817,-0.4433853626251221,-0.8126495480537415,-0.7326695322990417,0.02322769165039062,-0.01898694038391113,0.01140117645263672,XArbitraryZVertical,0.4067625627979309,0.05990136325532609,0.7554940717154995,0.5100830330838602,-0.5535040497779846,-0.505475640296936,-0.6619120836257935,29291.582709375,unknown,2,2020-03-06 13:47:49.928 +0100,605191668.1376497,0,-8.96,98.78668
2020-03-06 13:47:50.695 +0100,29292.348826375,-0.7220458984375,-0.480377197265625,-0.6699066162109375,29292.328727375,2.129767639372007,-0.7024363322836926,0.533342995032292,-0.3918372690677643,-0.8173536062240601,-0.8107408881187439,-0.04686665534973145,-0.03359520435333252,-0.03563839197158813,XArbitraryZVertical,0.4102158031728418,0.05560808506694358,0.7483669323438962,0.5182447426496939,-0.5563467144966125,-0.5084148645401001,-0.6572614908218384,29291.582709375,unknown,2,2020-03-06 13:47:49.928 +0100,605191668.1376497,0,-8.96,98.78668
2020-03-06 13:47:50.716 +0100,29292.368925375,-0.6435394287109375,-0.3933258056640625,-0.65985107421875,29292.348826375,2.109505812545661,-0.7080503465456379,0.5382481741692269,-0.3972436785697937,-0.7693161368370056,-0.840599536895752,-0.1652060747146606,-0.02814143896102905,-0.01352894306182861,XArbitraryZVertical,0.4137412220709982,0.05201392289013575,0.7409881534757351,0.5263546665102038,-0.5583991408348083,-0.5126326680183411,-0.6522254943847656,29291.582709375,unknown,2,2020-03-06 13:47:49.928 +0100,605191668.1376497,0,-8.96,98.78668
2020-03-06 13:47:50.736 +0100,29292.389024375,-0.5803070068359375,-0.615692138671875,-0.675506591796875,29292.368925375,2.090098569816939,-0.7119695162175014,0.5451807573345882,-0.07036226987838745,-0.5893347263336182,-0.8368807435035706,-0.1058310270309448,0.1363221406936646,-0.01919150352478027,XArbitraryZVertical,0.4169591165314978,0.04982112130202923,0.7336966351698417,0.5341836366962752,-0.5586157441139221,-0.5185726284980774,-0.647325873374939,29291.582709375,unknown,2,2020-03-06 13:47:49.928 +0100,605191668.1376497,0,-8.96,98.78668
2020-03-06 13:47:50.756 +0100,29292.409122375,-0.5490264892578125,-0.6056365966796875,-0.6048736572265625,29292.389024375,2.076012164753217,-0.7154778342312639,0.5573899679292911,0.0868854895234108,-0.5201209187507629,-0.8675795197486877,-0.0330207347869873,-0.02181082963943481,-0.01545345783233643,XArbitraryZVertical,0.4208730990128088,0.05097214642739221,0.7267976356749835,0.5404006079019482,-0.5566883683204651,-0.5289730429649353,-0.6405353546142578,29291.582709375,unknown,2,2020-03-06 13:47:49.928 +0100,605191668.1376497,0,-8.96,98.78668
2020-03-06 13:47:50.776 +0100,29292.429221375,-0.5407257080078125,-0.4261016845703125,-0.5887298583984375,29292.409122375,2.058877626228489,-0.7174411708772913,0.567131516569308,-0.3101852834224701,-0.5764554738998413,-0.8250353932380676,0.001228868961334229,-0.09647011756896973,0.02667373418807983,XArbitraryZVertical,0.4238543225093616,0.05082758453342661,0.7197963813567331,0.5474095761988403,-0.5545306205749512,-0.5372148752212524,-0.6355281472206116,29291.582709375,unknown,2,2020-03-06 13:47:49.928 +0100,605191668.1376497,0,-8.96,98.78668
2020-03-06 13:47:50.796 +0100,29292.449320375,-0.30804443359375,-0.439788818359375,-0.663604736328125,29292.429221375,2.038883339860438,-0.7185804260233495,0.5724594511725866,-0.3135805428028107,-0.5808820128440857,-0.8072296380996704,0.009551405906677246,0.0925711989402771,0.04054057598114014,XArbitraryZVertical,0.4257775700431648,0.04844848805706316,0.7129781516515742,0.5550029348884077,-0.5533621311187744,-0.5417010188102722,-0.6327323913574219,29291.582709375,unknown,2,2020-03-06 13:47:49.928 +0100,605191668.1376497,0,-8.96,98.78668
2020-03-06 13:47:50.816 +0100,29292.469419375,-0.6367950439453125,-0.569305419921875,-0.585968017578125,29292.449320375,2.029484185815594,-0.7236635960028512,0.5798959897731755,0.1734118908643723,-0.6965743899345398,-0.4488330483436584,0.2109139561653137,0.02672439813613892,-0.07208216190338135,XArbitraryZVertical,0.4292468943228944,0.04805699239304188,0.7077717444850475,0.559014144101559,-0.5538885593414307,-0.5479369163513184,-0.6268752813339233,29291.582709375,unknown,2,2020-03-06 13:47:49.928 +0100,605191670.7056087,0,-8.99,98.78828
2020-03-06 13:47:50.836 +0100,29292.489519125,-0.6121063232421875,-0.5059814453125,-0.6138153076171875,29292.469419375,2.024034535667174,-0.735249439639779,0.5923729747218958,0.4767764210700989,-0.6729798913002014,-0.6231389045715332,-0.02152103185653687,0.004388630390167236,0.0287361741065979,XArbitraryZVertical,0.4358658266240799,0.04870609541903342,0.7011826764946574,0.5621311481944845,-0.5564846992492676,-0.5583312511444092,-0.6152973771095276,29291.582709375,unknown,2,2020-03-06 13:47:49.928 +0100,605191670.7056087,0,-8.99,98.78828
2020-03-06 13:47:50.856 +0100,29292.509617125,-0.6043243408203125,-0.54522705078125,-0.5832977294921875,29292.489519125,2.022617717631468,-0.748023214607893,0.6065984035857821,0.4504681825637817,-0.6859906315803528,-0.446427047252655,-0.07592898607254028,0.09073358774185181,-0.02338343858718872,XArbitraryZVertical,0.4430742317876789,0.05057143386921145,0.6950112964164831,0.5639919543406509,-0.5588394403457642,-0.570076048374176,-0.6022555232048035,29291.582709375,unknown,2,2020-03-06 13:47:49.928 +0100,605191670.7056087,0,-8.99,98.78828
2020-03-06 13:47:50.876 +0100,29292.529716125,-0.5903167724609375,-0.4352874755859375,-0.5662994384765625,29292.509617125,2.024924300485639,-0.7634936126289916,0.6186724129381445,0.5950382947921753,-0.7135164737701416,-0.2501632273197174,-0.03433984518051147,0.007365226745605469,-0.001502156257629395,XArbitraryZVertical,0.4506380247004792,0.05161423531926005,0.6896448511188789,0.5644920569958903,-0.5632887482643127,-0.5799541473388672,-0.5885226726531982,29291.582709375,unknown,2,2020-03-06 13:47:49.928 +0100,605191670.7056087,0,-8.99,98.78828
2020-03-06 13:47:50.896 +0100,29292.549815125,-0.5877227783203125,-0.5886383056640625,-0.55145263671875,29292.529716125,2.033193030917717,-0.7813441699847425,0.6314778416619615,0.8151432275772095,-0.6329632997512817,-0.1910695433616638,-0.03797537088394165,0.1457858085632324,0.003873229026794434,XArbitraryZVertical,0.4589060167372018,0.05364685879225276,0.6851562988991283,0.5631058055329098,-0.5684269666671753,-0.5903382301330566,-0.5730545520782471,29291.582709375,unknown,2,2020-03-06 13:47:49.928 +0100,605191670.7056087,0,-8.99,98.78828
2020-03-06 13:47:50.916 +0100,29292.569914125,-0.596954345703125,-0.603271484375,-0.5666656494140625,29292.549815125,2.044981690056566,-0.8007051148886283,0.6474072174932716,0.9805618524551392,-0.596699595451355,-0.2654732465744019,-0.005750536918640137,0.05825638771057129,0.01455545425415039,XArbitraryZVertical,0.4680217473522648,0.0573873105593092,0.680488595268558,0.5608900483647676,-0.5725910067558289,-0.6031203269958496,-0.5553246736526489,29291.582709375,unknown,2,2020-03-06 13:47:49.928 +0100,605191670.7056087,0,-8.99,98.78828
2020-03-06 13:47:50.936 +0100,29292.590013125,-0.5418243408203125,-0.6222076416015625,-0.537200927734375,29292.569914125,2.057579195503018,-0.819715312911269,0.6633856945713059,0.8147055506706238,-0.5342814326286316,-0.2337997406721115,-0.02272570133209229,0.02319443225860596,-0.02715325355529785,XArbitraryZVertical,0.4768323359347328,0.06151284456054669,0.6759567784383698,0.5585065405555738,-0.5759254693984985,-0.6157879829406738,-0.5376942157745361,29291.582709375,unknown,2,2020-03-06 13:47:49.928 +0100,605191670.7056087,0,-8.99,98.78828
2020-03-06 13:47:50.957 +0100,29292.610111125,-0.5844268798828125,-0.6605072021484375,-0.5239715576171875,29292.590013125,2.066026595607523,-0.835513925727861,0.6777128162970052,0.6999296545982361,-0.524113655090332,-0.4289555251598358,0.02552658319473267,-0.01508009433746338,-0.02846646308898926,XArbitraryZVertical,0.4842573500512811,0.06493516444636181,0.6712679423935993,0.5573845608482969,-0.5777451395988464,-0.6270129084587097,-0.522556483745575,29291.582709375,unknown,2,2020-03-06 13:47:49.928 +0100,605191670.7056087,0,-8.99,98.78828
2020-03-06 13:47:50.977 +0100,29292.630210125,-0.6503448486328125,-0.7122955322265625,-0.50689697265625,29292.610111125,2.069229798789212,-0.8479516396932649,0.6931537914969716,0.5160931348800659,-0.5177912712097168,-0.5282987356185913,0.009819626808166504,0.03317379951477051,-0.01739323139190674,XArbitraryZVertical,0.4907916602559434,0.06849264677998494,0.6655748794383604,0.5580701912884308,-0.576869785785675,-0.6389663815498352,-0.5088645815849304,29291.582709375,unknown,2,2020-03-06 13:47:49.928 +0100,605191670.7056087,0,-8.99,98.78828
2020-03-06 13:47:50.997 +0100,29292.650309125,-0.60003662109375,-0.62860107421875,-0.4868011474609375,29292.630210125,2.069923115065087,-0.8571778665520444,0.7044194085963414,0.3122253715991974,-0.3272510766983032,-0.2784939706325531,-0.06940370798110962,-0.1020455956459045,-0.0131375789642334,XArbitraryZVertical,0.4956025946115379,0.07063692409697724,0.6608662401726665,0.5591460016090469,-0.5760613679885864,-0.6475915312767029,-0.4987769722938538,29291.582709375,unknown,2,2020-03-06 13:47:49.928 +0100,605191670.7056087,0,-8.99,98.78828
2020-03-06 13:47:51.017 +0100,29292.670408125,-0.5735626220703125,-0.683624267578125,-0.482940673828125,29292.650309125,2.071595238150627,-0.8629992807102261,0.7106481765850751,0.2688034176826477,-0.1686913669109344,-0.1634040623903275,-0.03224772214889526,0.03228086233139038,-0.006054699420928955,XArbitraryZVertical,0.4984309965402664,0.07193803627090896,0.6584222622034662,0.5593492190295305,-0.5758791565895081,-0.6523252129554749,-0.4927829205989838,29291.582709375,unknown,2,2020-03-06 13:47:49.928 +0100,605191670.7056087,0,-8.99,98.78828
2020-03-06 13:47:51.037 +0100,29292.690507125,-0.602691650390625,-0.6533966064453125,-0.48162841796875,29292.670408125,2.073725182819429,-0.8676732133575435,0.7168691910737091,0.2812755405902863,-0.1621741056442261,-0.219827726483345,0.004051804542541504,-0.008732080459594727,0.0003640651702880859,XArbitraryZVertical,0.5008454907130309,0.07367196680956112,0.6563788989163101,0.5593683536918044,-0.5750693082809448,-0.6570276618003845,-0.4874524772167206,29291.582709375,unknown,2,2020-03-06 13:47:49.928 +0100,605191670.7056087,0,-8.99,98.78828
2020-03-06 13:47:51.057 +0100,29292.710606125,-0.60797119140625,-0.672210693359375,-0.4726104736328125,29292.690507125,2.075508151947019,-0.8710981399839319,0.7232897552196464,0.2122054100036621,-0.07822854071855545,-0.1667909026145935,-0.02803868055343628,0.01335245370864868,0.00237882137298584,XArbitraryZVertical,0.5028769633627915,0.07574995481401675,0.654491476031049,0.5594797512790201,-0.5734962224960327,-0.6618543267250061,-0.4827533960342407,29291.582709375,unknown,2,2020-03-06 13:47:49.928 +0100,605191670.7056087,0,-8.99,98.78828
2020-03-06 13:47:51.077 +0100,29292.730704125,-0.5673675537109375,-0.61328125,-0.4642486572265625,29292.710606125,2.07750870788527,-0.8731417529014719,0.727509424356686,0.1902556270360947,0.005380838178098202,-0.05278211086988449,-0.03331857919692993,-0.02867156267166138,0.000490725040435791,XArbitraryZVertical,0.5041040662125974,0.07738292900177678,0.6535289572414343,0.5592770654088899,-0.5723361968994141,-0.6650116443634033,-0.4797819554805756,29291.582709375,unknown,2,2020-03-06 13:47:49.928 +0100,605191670.7056087,0,-8.99,98.78828
2020-03-06 13:47:51.097 +0100,29292.750803125,-0.5820465087890625,-0.6241455078125,-0.4543609619140625,29292.730704125,2.082152366176975,-0.8763454499909125,0.7311053501122354,0.3353520035743713,-0.03182877227663994,-0.03435247018933296,0.00279700756072998,0.05079191923141479,0.01082354784011841,XArbitraryZVertical,0.5055051484743208,0.07910970725999818,0.6531564801404248,0.5582048688134217,-0.5720290541648865,-0.6676928997039795,-0.4764123857021332,29291.582709375,unknown,2,2020-03-06 13:47:49.928 +0100,605191670.7056087,0,-8.99,98.78828
2020-03-06 13:47:51.117 +0100,29292.770902125,-0.5543670654296875,-0.6559906005859375,-0.46514892578125,29292.750803125,2.091019427967755,-0.8833369157072366,0.7366193652522649,0.5367846488952637,-0.08937714993953705,0.02101654745638371,-0.01090031862258911,0.04618912935256958,0.01370078325271606,XArbitraryZVertical,0.5082391131034004,0.08163326039689447,0.6525297942457434,0.5560879584127478,-0.5724917650222778,-0.6717875599861145,-0.4700580239295959,29291.582709375,unknown,2,2020-03-06 13:47:49.928 +0100,605191670.7056087,0,-8.99,98.78828
2020-03-06 13:47:51.137 +0100,29292.791001125,-0.5853271484375,-0.631805419921875,-0.4361572265625,29292.770902125,2.103874497549861,-0.8952903554857423,0.7434435589488622,0.6310102343559265,-0.2411320209503174,0.03106232173740864,0.02271771430969238,0.03250575065612793,-0.01262408494949341,XArbitraryZVertical,0.5125743650276877,0.08435346007655772,0.6513957316868791,0.5530240485296581,-0.5744785070419312,-0.6768268942832947,-0.4603040218353271,29291.582709375,unknown,2,2020-03-06 13:47:49.928 +0100,605191670.7056087,0,-8.99,98.78828
2020-03-06 13:47:51.158 +0100,29292.811100125,-0.5863189697265625,-0.6867218017578125,-0.43902587890625,29292.791001125,2.120019991485882,-0.911681493011044,0.7508230463455525,0.7488093376159668,-0.2828790843486786,0.1128008216619492,-0.004311919212341309,0.04260408878326416,0.0123026967048645,XArbitraryZVertical,0.5182252173645449,0.08697709250904523,0.6498277850051093,0.5491825379360465,-0.57798171043396,-0.6822407245635986,-0.4477552175521851,29291.582709375,unknown,2,2020-03-06 13:47:49.928 +0100,605191670.7056087,0,-8.99,98.78828
2020-03-06 13:47:51.191 +0100,29292.831198125,-0.5742950439453125,-0.677978515625,-0.4184112548828125,29292.811100125,2.138787665270729,-0.9302154334412948,0.7570179105775761,0.7373121380805969,-0.3051411509513855,0.1904958635568619,-0.006913125514984131,0.01579403877258301,-0.006055712699890137,XArbitraryZVertical,0.5242221531271236,0.08930273831047805,0.6486153800539219,0.5445311656250911,-0.5827808380126953,-0.6867568492889404,-0.4344322979450226,29291.582709375,unknown,2,2020-03-06 13:47:49.928 +0100,605191670.7056087,0,-8.99,98.78828
2020-03-06 13:47:51.198 +0100,29292.851297125,-0.590667724609375,-0.67431640625,-0.395263671875,29292.831198125,2.159180897012437,-0.9509733535718915,0.7614585930017513,0.7728661298751831,-0.3828832507133484,0.2989466786384583,0.01938772201538086,0.001467406749725342,0.001493632793426514,XArbitraryZVertical,0.5305779780178758,0.09084992936198824,0.647577357536654,0.539329996687108,-0.5891844034194946,-0.6899779438972473,-0.4204666018486023,29291.582709375,unknown,2,2020-03-06 13:47:49.928 +0100,605191670.7056087,0,-8.99,98.78828
2020-03-06 13:47:51.218 +0100,29292.871396125,-0.5800628662109375,-0.688018798828125,-0.3854827880859375,29292.851297125,2.182838927352032,-0.9751038090348662,0.764663599074616,0.8513286113739014,-0.4205644130706787,0.3738093078136444,0.009385049343109131,0.02523773908615112,0.007152557373046875,XArbitraryZVertical,0.5376751187958779,0.09199327934006449,0.6466869574243693,0.5331403275027903,-0.5973243117332458,-0.6922942996025085,-0.4048854112625122,29291.582709375,unknown,2,2020-03-06 13:47:49.928 +0100,605191670.7056087,0,-8.99,98.78828
2020-03-06 13:47:51.238 +0100,29292.891495125,-0.583587646484375,-0.7302703857421875,-0.3752593994140625,29292.871396125,2.208758588810658,-1.001454425201018,0.7672992393518535,0.8474215865135193,-0.445638120174408,0.4484541714191437,0.01983249187469482,0.01389288902282715,-0.001486599445343018,XArbitraryZVertical,0.5452726367205573,0.09309596136409717,0.6457678154247813,0.5263028138729156,-0.6062456965446472,-0.6941937804222107,-0.3880217969417572,29291.582709375,unknown,2,2020-03-06 13:47:49.928 +0100,605191670.7056087,0,-8.99,98.78828
2020-03-06 13:47:51.258 +0100,29292.911594125,-0.6718292236328125,-0.7488250732421875,-0.3592071533203125,29292.891495125,2.235142371239941,-1.029138230237289,0.7655903796914675,0.6779561638832092,-0.5039788484573364,0.6407949328422546,0.05329835414886475,-0.03381657600402832,-0.01080137491226196,XArbitraryZVertical,0.5528179874563329,0.09241590571748087,0.6454829624806813,0.5188479708980399,-0.6177695989608765,-0.6929627656936646,-0.3717031478881836,29291.582709375,unknown,2,2020-03-06 13:47:49.928 +0100,605191670.7056087,0,-8.99,98.78828
2020-03-06 13:47:51.278 +0100,29292.931693125,-0.664398193359375,-0.693756103515625,-0.3524932861328125,29292.911594125,2.256980741787294,-1.053347644196483,0.7615563327820793,0.5101835131645203,-0.4085660874843597,0.561234176158905,-0.04349285364151001,-0.06050384044647217,-0.0002995729446411133,XArbitraryZVertical,0.559265630517516,0.09062064527061063,0.645372946713366,0.5123508752758684,-0.6290106773376465,-0.6900486946105957,-0.3580197095870972,29291.582709375,unknown,2,2020-03-06 13:47:49.928 +0100,605191670.7056087,0,-8.99,98.78828
2020-03-06 13:47:51.298 +0100,29292.951791125,-0.6436767578125,-0.6768798828125,-0.328216552734375,29292.931693125,2.275043490198038,-1.072649327671076,0.7563176958909694,0.4048756957054138,-0.2931753695011139,0.4870948791503906,-0.02991694211959839,-0.01839131116867065,-0.0003008842468261719,XArbitraryZVertical,0.5642429990000039,0.0886689520065834,0.6458333471278095,0.506623017698518,-0.6389704346656799,-0.686247706413269,-0.3475353121757507,29291.582709375,unknown,2,2020-03-06 13:47:49.928 +0100,605191670.7056087,0,-8.99,98.78828
2020-03-06 13:47:51.318 +0100,29292.971890125,-0.6826171875,-0.714813232421875,-0.2966461181640625,29292.951791125,2.289894257627015,-1.088451654976169,0.7529621503921301,0.4596055448055267,-0.2785612940788269,0.36614128947258,0.0004195570945739746,-0.01174139976501465,0.01371163129806519,XArbitraryZVertical,0.5684240459653569,0.08754097683580696,0.6459195124088816,0.5020145547731237,-0.6464186906814575,-0.6838031411170959,-0.3384613692760468,29291.582709375,unknown,2,2020-03-06 13:47:49.928 +0100,605191670.7056087,0,-8.99,98.78828
2020-03-06 13:47:51.338 +0100,29292.991989125,-0.677398681640625,-0.6724853515625,-0.337646484375,29292.971890125,2.304656146796586,-1.103453468685279,0.7524880614930757,0.4670110940933228,-0.2121537923812866,0.2046217918395996,-0.01986026763916016,0.004758179187774658,0.02298253774642944,XArbitraryZVertical,0.5725844798920908,0.08781167974301908,0.6454450760339139,0.4978321301260413,-0.6517127156257629,-0.6834571361541748,-0.3288722336292267,29291.582709375,unknown,2,2020-03-06 13:47:49.928 +0100,605191670.7056087,0,-8.99,98.78828
