loggingTime(txt),accelerometerTimestamp_sinceReboot(s),accelerometerAccelerationX(G),accelerometerAccelerationY(G),accelerometerAccelerationZ(G),motionTimestamp_sinceReboot(s),motionYaw(rad),motionRoll(rad),motionPitch(rad),motionRotationRateX(rad/s),motionRotationRateY(rad/s),motionRotationRateZ(rad/s),motionUserAccelerationX(G),motionUserAccelerationY(G),motionUserAccelerationZ(G),motionAttitudeReferenceFrame(txt),motionQuaternionX(R),motionQuaternionY(R),motionQuaternionZ(R),motionQuaternionW(R),motionGravityX(G),motionGravityY(G),motionGravityZ(G),activityTimestamp_sinceReboot(s),activity(txt),activityActivityConfidence(Z),activityActivityStartDate(txt),altimeterTimestamp_sinceReboot(s),altimeterReset(bool),altimeterRelativeAltitude(m),altimeterPressure(kPa)
2020-03-06 13:36:38.615 +0100,28911.087226375,0.11773681640625,-0.2163848876953125,-0.9748077392578125,28911.082201375,-2.242346586441251,0.04718373869228167,0.1914051052255659,0.0303264893591404,0.07150769233703613,-0.03334376215934753,0.0144408792257309,0.01068621873855591,-0.01154202222824097,XArbitraryZVertical,0.06266771014758409,-0.07582954157109445,-0.895260626517959,0.4345469257732257,0.04630487784743309,-0.1902385205030441,-0.9806452989578247,28908.45059475,unknown,2,2020-03-06 13:36:35.936 +0100,605190998.5088062,0,-0.2399998,98.77963
2020-03-06 13:36:38.630 +0100,28911.107323375,0.1057586669921875,-0.22454833984375,-0.9807586669921875,28911.102299375,-2.249213926979726,0.04699394591076651,0.1852698075248171,-0.5744653344154358,-0.1329662054777145,-0.4974053800106049,0.09773343801498413,-0.0663396418094635,0.01663750410079956,XArbitraryZVertical,0.06101042651676051,-0.07332800115470703,-0.8970444373188643,0.4315227934098819,0.04617271944880486,-0.1842117309570312,-0.981801450252533,28908.45059475,unknown,2,2020-03-06 13:36:35.936 +0100,605190998.5088062,0,-0.2399998,98.77963
2020-03-06 13:36:38.631 +0100,28911.127421375,0.0164642333984375,-0.164276123046875,-0.9911041259765625,28911.122396375,-2.257353998574187,0.0456514995986842,0.1730738975823881,-0.4768480062484741,-0.1306493431329727,-0.3123373091220856,0.0138235054910183,-0.02147060632705688,-0.009542107582092285,XArbitraryZVertical,0.05752152147077392,-0.06836947991183738,-0.8993861546995584,0.4279268272782353,0.0449538491666317,-0.1722111254930496,-0.9840337634086609,28908.45059475,unknown,2,2020-03-06 13:36:35.936 +0100,605190998.5088062,0,-0.2399998,98.77963
2020-03-06 13:36:38.634 +0100,28911.147518375,-0.00677490234375,-0.15936279296875,-0.976898193359375,28911.142494375,-2.260098683569711,0.04502090277464251,0.1672343230760715,-0.1051731109619141,0.01162229757755995,0.01269559934735298,-0.05298326909542084,0.0158650130033493,0.001285314559936523,XArbitraryZVertical,0.05590812347933807,-0.06594996669127438,-0.9002429262556438,0.4267171878615516,0.04437781497836113,-0.1664558947086334,-0.9850497841835022,28908.45059475,unknown,2,2020-03-06 13:36:35.936 +0100,605190998.5088062,0,-0.2399998,98.77963
2020-03-06 13:36:38.654 +0100,28911.167616375,0.02252197265625,-0.1810302734375,-0.9615020751953125,28911.162591375,-2.258561946680159,0.04582494069669012,0.1662386142269334,-0.07046384364366531,0.06205282360315323,0.07142525911331177,-0.03655566275119781,-0.006692826747894287,0.01659685373306274,XArbitraryZVertical,0.05610947403166881,-0.06528631693827054,-0.8999345594988011,0.4274427052574975,0.0451773889362812,-0.165473997592926,-0.9851788282394409,28908.45059475,unknown,2,2020-03-06 13:36:35.936 +0100,605190998.5088062,0,-0.2399998,98.77963
2020-03-06 13:36:38.678 +0100,28911.187713375,0.0241241455078125,-0.17095947265625,-0.9530181884765625,28911.182689375,-2.258369643777754,0.04760163641954263,0.1638468112872674,-0.1907621026039124,0.07537803053855896,-0.04483330622315407,-0.01964785531163216,-0.01813109219074249,0.02865684032440186,XArbitraryZVertical,0.05640802769997771,-0.06382291922338539,-0.8999444253243544,0.4276034525152057,0.04694638028740883,-0.1631146967411041,-0.985489547252655,28908.45059475,unknown,2,2020-03-06 13:36:35.936 +0100,605190998.5088062,0,-0.2399998,98.77963
2020-03-06 13:36:38.694 +0100,28911.207811375,0.000885009765625,-0.164398193359375,-0.954742431640625,28911.202786375,-2.259152990329821,0.04934714491423449,0.160646710221362,-0.09229138493537903,0.08781994134187698,0.000136365182697773,-0.03482117876410484,0.004620254039764404,0.03090548515319824,XArbitraryZVertical,0.05649063723731999,-0.06202911005298306,-0.9001963134288731,0.4273263075064213,0.04869198426604271,-0.159956619143486,-0.9859223961830139,28908.45059475,unknown,2,2020-03-06 13:36:35.936 +0100,605190998.5088062,0,-0.2399998,98.77963
2020-03-06 13:36:38.714 +0100,28911.227908375,-4.57763671875e-05,-0.1683197021484375,-0.9534759521484375,28911.222884375,-2.256986963704108,0.05129235770295386,0.1606948320930361,0.04444362223148346,0.1459682881832123,0.1626210510730743,-0.05456075072288513,-0.005952402949333191,0.03103011846542358,XArbitraryZVertical,0.05744305948839699,-0.06157299192813831,-0.8996755089965351,0.4283607108625448,0.05060932785272598,-0.160004124045372,-0.9858181476593018,28908.45059475,unknown,2,2020-03-06 13:36:35.936 +0100,605190998.5088062,0,-0.2399998,98.77963
2020-03-06 13:36:38.734 +0100,28911.248006375,0.0194091796875,-0.1896209716796875,-0.95849609375,28911.242981375,-2.254154698369014,0.05367300197425894,0.1610941352210851,-0.04154558852314949,0.1517681628465652,0.1235277727246284,-0.04195040836930275,-0.02290752530097961,0.02971380949020386,XArbitraryZVertical,0.05868535041460188,-0.06115998605396369,-0.8989821238410127,0.4297052203673813,0.05295263230800629,-0.1603982746601105,-0.985630989074707,28908.45059475,unknown,2,2020-03-06 13:36:35.936 +0100,605190998.5088062,0,-0.2399998,98.77963
2020-03-06 13:36:38.755 +0100,28911.268103375,0.0057830810546875,-0.1652069091796875,-0.9642333984375,28911.263079375,-2.25100871288494,0.05606316555090016,0.1598021132735428,-0.09817518293857574,0.1494839191436768,0.1716296821832657,-0.04160155355930328,-0.02049028873443604,0.02287828922271729,XArbitraryZVertical,0.05957905093397965,-0.05997079984819255,-0.8982886568294022,0.4311974177673732,0.05531986430287361,-0.1591228395700455,-0.985707700252533,28908.45059475,unknown,2,2020-03-06 13:36:35.936 +0100,605190998.5088062,0,-0.2399998,98.77963
2020-03-06 13:36:38.775 +0100,28911.288200375,0.0064849853515625,-0.15399169921875,-0.97393798828125,28911.283176375,-2.247198769946122,0.05850636473061885,0.1583378168874941,-0.05917086452245712,0.1669083088636398,0.1907537877559662,-0.05275122448801994,0.0001281201839447021,0.01695972681045532,XArbitraryZVertical,0.0604755438881414,-0.05866978860081305,-0.8974536942678836,0.4329865789909218,0.05774153769016266,-0.1576770395040512,-0.985801100730896,28908.45059475,unknown,2,2020-03-06 13:36:35.936 +0100,605190998.5088062,0,-0.2399998,98.77963
2020-03-06 13:36:38.795 +0100,28911.308298375,0.0154876708984375,-0.144927978515625,-0.9800262451171875,28911.303274375,-2.242902655291652,0.06107873895473772,0.157867274704878,-0.02775239199399948,0.16787388920784,0.2242035865783691,-0.05310935899615288,0.009795278310775757,0.01025956869125366,XArbitraryZVertical,0.0616531553260683,-0.05776891334563037,-0.8964627200212982,0.4349899580626641,0.06028171628713608,-0.1572123616933823,-0.9857232570648193,28908.45059475,unknown,2,2020-03-06 13:36:35.936 +0100,605190998.5088062,0,-0.2399998,98.77963
2020-03-06 13:36:38.815 +0100,28911.328395375,0.0169219970703125,-0.1526947021484375,-0.9835662841796875,28911.323371375,-2.238311355307058,0.06317949045640334,0.1577721501744884,-0.01839117333292961,0.1350929737091064,0.2240791171789169,-0.04427086189389229,0.01061683893203735,0.003370821475982666,XArbitraryZVertical,0.06270557135702244,-0.05712544802249005,-0.8954003734977639,0.4371072837079156,0.06235328689217567,-0.1571184247732162,-0.9856094121932983,28908.45059475,unknown,2,2020-03-06 13:36:35.936 +0100,605190998.5088062,0,-0.2399998,98.77963
2020-03-06 13:36:38.835 +0100,28911.348493375,0.0109100341796875,-0.1616668701171875,-1.0008544921875,28911.343468375,-2.23355250692773,0.06486975756324881,0.157766501774565,-0.02851316332817078,0.1305280476808548,0.2386943399906158,-0.05042281746864319,-0.001336410641670227,-0.004120349884033203,XArbitraryZVertical,0.06359591975681765,-0.05660231016352042,-0.8943046248867392,0.4392846693482805,0.06401919573545456,-0.1571128368377686,-0.9855034947395325,28908.45059475,unknown,2,2020-03-06 13:36:35.936 +0100,605190998.5088062,0,-0.2399998,98.77963
2020-03-06 13:36:38.855 +0100,28911.368590375,0.020294189453125,-0.15887451171875,-1.009674072265625,28911.363566375,-2.228544214247774,0.0662408639321795,0.1569943463206477,-0.07846116274595261,0.1096120476722717,0.2411586344242096,-0.04882176965475082,-0.005761146545410156,-0.02110183238983154,XArbitraryZVertical,0.06418111067584387,-0.05579446307071566,-0.8931907023139676,0.4415632280399737,0.06537837535142899,-0.1563502252101898,-0.9855355024337769,28908.45059475,unknown,2,2020-03-06 13:36:35.936 +0100,605190998.5088062,0,-0.2399998,98.77963
2020-03-06 13:36:38.876 +0100,28911.388688375,0.0247802734375,-0.14794921875,-1.00018310546875,28911.383663375,-2.22331696672298,0.06722077183235832,0.1556151283282548,-0.08633988350629807,0.08118598908185959,0.256661593914032,-0.04533104598522186,0.003450781106948853,-0.02087587118148804,XArbitraryZVertical,0.06446087464383861,-0.05479228027671178,-0.8920603999989094,0.4439264695202645,0.06635849922895432,-0.1549878269433975,-0.9856852293014526,28908.45059475,unknown,2,2020-03-06 13:36:35.936 +0100,605190998.5088062,0,-0.2399998,98.77963
2020-03-06 13:36:38.895 +0100,28911.408785375,0.022003173828125,-0.1572113037109375,-0.9896697998046875,28911.403761375,-2.217798521474976,0.06753988618595251,0.1544172118039411,-0.06874743849039078,0.06121762096881866,0.2756984531879425,-0.04274363815784454,0.0007566213607788086,-0.009527862071990967,XArbitraryZVertical,0.06448938132673467,-0.05400800667572818,-0.8908722859509068,0.4463975132868881,0.06668552756309509,-0.1538042724132538,-0.9858484864234924,28908.45059475,unknown,2,2020-03-06 13:36:35.936 +0100,605190998.5088062,0,-0.2399998,98.77963
2020-03-06 13:36:38.915 +0100,28911.428883375,0.0248260498046875,-0.164215087890625,-0.985626220703125,28911.423858375,-2.212034980455935,0.06745733825457642,0.1530536131941664,-0.1050744578242302,0.04227714613080025,0.2707321345806122,-0.04430897533893585,-0.00840345025062561,-0.002630710601806641,XArbitraryZVertical,0.06430508859032753,-0.05323234303084193,-0.8896419222289549,0.4489637505978239,0.06661821901798248,-0.1524567604064941,-0.9860623478889465,28908.45059475,unknown,2,2020-03-06 13:36:35.936 +0100,605190998.5088062,0,-0.2399998,98.77963
2020-03-06 13:36:38.935 +0100,28911.448980375,0.0328216552734375,-0.1610565185546875,-0.971649169921875,28911.443956375,-2.206309808345349,0.06727283285816286,0.1508974518682544,-0.146600216627121,0.04403796792030334,0.2776649594306946,-0.03926617652177811,-0.01128245890140533,0.004649996757507324,XArbitraryZVertical,0.06389340923085013,-0.05212945431111195,-0.8884482949112399,0.451508205034514,0.06645822525024414,-0.1503254473209381,-0.986400306224823,28908.45059475,unknown,2,2020-03-06 13:36:35.936 +0100,605190998.5088062,0,-0.2399998,98.77963
2020-03-06 13:36:38.956 +0100,28911.469078375,0.0485382080078125,-0.1676483154296875,-0.9342193603515625,28911.464053375,-2.200176445823109,0.06698601488407151,0.1478848819529938,-0.202802449464798,0.0378105640411377,0.3045250177383423,-0.02604331076145172,-0.01630610227584839,0.03027814626693726,XArbitraryZVertical,0.06324827490723924,-0.05065872224906942,-0.8871916104919424,0.454229348850396,0.06620532274246216,-0.1473464369773865,-0.9868667125701904,28908.45059475,unknown,2,2020-03-06 13:36:35.936 +0100,605190998.5088062,0,-0.2399998,98.77963
2020-03-06 13:36:38.976 +0100,28911.489175375,0.0724639892578125,-0.179443359375,-0.8914947509765625,28911.484151375,-2.193147673273764,0.06649284576156729,0.1431255904589941,-0.3353124558925629,0.02649175934493542,0.357471764087677,-0.005506619811058044,-0.03306950628757477,0.07514286041259766,XArbitraryZVertical,0.06212947391178813,-0.04843599494232266,-0.8857952530289077,0.4573408181805624,0.06576447188854218,-0.1426374316215515,-0.9875877499580383,28908.45059475,unknown,2,2020-03-06 13:36:35.936 +0100,605190998.5088062,0,-0.2399998,98.77963
2020-03-06 13:36:38.996 +0100,28911.509273375,0.10137939453125,-0.1619110107421875,-0.85675048828125,28911.504248375,-2.184651054754113,0.06562807310554075,0.1351942551583389,-0.5229899287223816,0.01866387203335762,0.4241378605365753,0.02036075294017792,-0.03910829126834869,0.1154969930648804,XArbitraryZVertical,0.06014006402594229,-0.04485690666137068,-0.8841755745572235,0.4610905776344377,0.06498255580663681,-0.1347827911376953,-0.9887420535087585,28908.45059475,unknown,2,2020-03-06 13:36:35.936 +0100,605190998.5088062,0,-0.2399998,98.77963
2020-03-06 13:36:39.016 +0100,28911.529370375,0.1252288818359375,-0.132232666015625,-0.8380889892578125,28911.524346375,-2.174500748505125,0.06451856720198053,0.123599482993031,-0.697012722492218,0.009163429960608482,0.499720424413681,0.0516042560338974,-0.02448286861181259,0.1443136930465698,XArbitraryZVertical,0.05720015636738719,-0.03968444310456119,-0.8822758778652825,0.4655561408203844,0.06398196518421173,-0.1232850253582001,-0.990306556224823,28908.45059475,unknown,2,2020-03-06 13:36:35.936 +0100,605190998.5088062,0,-0.2399998,98.77963
2020-03-06 13:36:39.036 +0100,28911.549467375,0.1430511474609375,-0.0972747802734375,-0.830902099609375,28911.544443375,-2.16248727442646,0.06321826305523556,0.1090003635392904,-0.8243420720100403,0.004554519429802895,0.594328761100769,0.0727587416768074,-0.007183730602264404,0.1582479476928711,XArbitraryZVertical,0.05345257170953077,-0.03321188670168254,-0.8799831957546425,0.4708178240467807,0.06280123442411423,-0.1087846532464027,-0.9920796155929565,28908.45059475,unknown,2,2020-03-06 13:36:35.936 +0100,605190998.5088062,0,-0.2399998,98.77963
2020-03-06 13:36:39.056 +0100,28911.569565375,0.1582183837890625,-0.0782318115234375,-0.8262481689453125,28911.564541375,-2.148289541010374,0.06181368204703588,0.09219699131610713,-0.9216806292533875,-0.008234497159719467,0.7057616114616394,0.09042065590620041,0.009606577455997467,0.1635289192199707,XArbitraryZVertical,0.04908652603946068,-0.02578667381695277,-0.8771509977670557,0.4770027589551076,0.06151195988059044,-0.09206642955541611,-0.9938511252403259,28908.45059475,unknown,2,2020-03-06 13:36:35.936 +0100,605190998.5088062,0,-0.2399998,98.77963
2020-03-06 13:36:39.076 +0100,28911.589662375,0.1714630126953125,-0.06500244140625,-0.827362060546875,28911.584638375,-2.131309191822497,0.06020297801351104,0.07415018735937558,-0.9762945175170898,-0.01471901405602694,0.8673415184020996,0.1058473289012909,0.001296736299991608,0.1659472584724426,XArbitraryZVertical,0.04424948297508157,-0.01786765943493846,-0.8735684651387859,0.4843560434743616,0.06000128760933876,-0.07408225536346436,-0.9954454302787781,28908.45059475,unknown,2,2020-03-06 13:36:35.936 +0100,605190998.5088062,0,-0.2399998,98.77963
2020-03-06 13:36:39.096 +0100,28911.609760375,0.1756591796875,-0.0618438720703125,-0.82659912109375,28911.604736375,-2.11123653058735,0.05861682889465155,0.05489127986376923,-1.05732786655426,-0.01026634126901627,1.003195762634277,0.1158069372177124,-0.006691083312034607,0.1675248742103577,XArbitraryZVertical,0.03900575795817854,-0.009437628147047832,-0.8691074821074555,0.4929925029691975,0.05849503353238106,-0.05486371740698814,-0.9967789649963379,28908.45059475,unknown,2,2020-03-06 13:36:35.936 +0100,605190998.5088062,0,-0.2399998,98.77963
2020-03-06 13:36:39.116 +0100,28911.629857375,0.1817169189453125,-0.0679473876953125,-0.8427276611328125,28911.624833375,-2.088365397876592,0.05769628958799038,0.03407732647200008,-1.142869830131531,0.02287792600691319,1.148158431053162,0.1225763261318207,-0.03190883249044418,0.1682276725769043,XArbitraryZVertical,0.03349234886015515,-0.0002281091961887874,-0.8637819142449699,0.5027515140276057,0.05763080716133118,-0.03407073020935059,-0.9977564215660095,28908.45059475,unknown,2,2020-03-06 13:36:35.936 +0100,605190998.5088062,0,-0.2399998,98.77963
2020-03-06 13:36:39.136 +0100,28911.649955375,0.17626953125,-0.0554962158203125,-0.8809967041015625,28911.644930375,-2.062451157633379,0.05803545655488119,0.01194938521265232,-1.202693581581116,0.07279131561517715,1.29392671585083,0.1210029348731041,-0.0532519519329071,0.1378478407859802,XArbitraryZVertical,0.02795951774651832,0.009782338985112765,-0.8574637279939772,0.5136909515638185,0.05799874290823936,-0.01194910053163767,-0.9982451200485229,28908.45059475,unknown,2,2020-03-06 13:36:35.936 +0100,605190998.5088062,0,-0.2399998,98.77963
2020-03-06 13:36:39.156 +0100,28911.670052375,0.1740570068359375,-0.0351409912109375,-0.9419708251953125,28911.665028375,-2.033729140080117,0.06012567510897124,-0.01064639775201368,-1.190016746520996,0.1350065171718597,1.433873295783997,0.114780530333519,-0.05616309493780136,0.09229844808578491,XArbitraryZVertical,0.02276420397599854,0.02033661769849097,-0.8501506864588744,0.5256538376225594,0.06008604913949966,0.01064619701355696,-0.9981364011764526,28908.45059475,unknown,2,2020-03-06 13:36:35.936 +0100,605190998.5088062,0,-0.2399998,98.77963
2020-03-06 13:36:39.196 +0100,28911.690150375,0.1724853515625,-0.031219482421875,-1.01251220703125,28911.685125375,-2.001956260088655,0.06399973408310849,-0.03144105723467688,-1.067717552185059,0.1807277202606201,1.593910217285156,0.1086381077766418,-0.06015255302190781,0.0193101167678833,XArbitraryZVertical,0.01845972984761286,0.03048752642294835,-0.841735329053672,0.5387126184670261,0.06392444670200348,0.03143587708473206,-0.9974594712257385,28908.45059475,unknown,2,2020-03-06 13:36:35.936 +0100,605190998.5088062,0,-0.2399998,98.77963
2020-03-06 13:36:39.198 +0100,28911.710247375,0.170989990234375,-0.0460968017578125,-1.07806396484375,28911.705223375,-1.966955879968237,0.06923786874339584,-0.0491502048012962,-0.9224386215209961,0.1951394975185394,1.758215188980103,0.1043485924601555,-0.09121355414390564,-0.05004841089248657,XArbitraryZVertical,0.01519508435152665,0.03961652403165732,-0.8321509264835631,0.5529234262443323,0.06909901648759842,0.04913041740655899,-0.9963992834091187,28908.45059475,unknown,2,2020-03-06 13:36:35.936 +0100,605190998.5088062,0,-0.2399998,98.77963
2020-03-06 13:36:39.217 +0100,28911.730345375,0.1597747802734375,-0.0155029296875,-1.122817993164062,28911.725320375,-1.929057871731074,0.07539784317794263,-0.06350453696010812,-0.780348539352417,0.2046860158443451,1.883464932441711,0.08806496858596802,-0.0983579084277153,-0.1013171076774597,XArbitraryZVertical,0.01288061571153174,0.04753556320993233,-0.8214645541703071,0.5681288470289418,0.07517458498477936,0.06346186250448227,-0.9951488971710205,28908.45059475,unknown,2,2020-03-06 13:36:35.936 +0100,605190998.5088062,0,-0.2399998,98.77963
2020-03-06 13:36:39.237 +0100,28911.750442375,0.17083740234375,0.023651123046875,-1.170440673828125,28911.745418375,-1.8889568933464,0.08223444226796991,-0.07430163314178097,-0.5896931886672974,0.1954377144575119,2.008538246154785,0.0810040608048439,-0.06551957875490189,-0.1553905010223389,XArbitraryZVertical,0.01152733522011802,0.05414499484865374,-0.8098429119820164,0.5840289582407064,0.08191514760255814,0.0742332860827446,-0.9938708543777466,28908.45059475,unknown,2,2020-03-06 13:36:35.936 +0100,605190998.5088062,0,-0.2399998,98.77963
2020-03-06 13:36:39.257 +0100,28911.770540375,0.1993255615234375,0.0255279541015625,-1.214263916015625,28911.765515375,-1.84615799005217,0.08902431401115966,-0.08003484947676762,-0.3575311303138733,0.1398752182722092,2.179119348526001,0.09584252536296844,-0.04976653307676315,-0.2036663293838501,XArbitraryZVertical,0.01134181330189026,0.05869913910085693,-0.7971095692871746,0.6008677215489303,0.08862217515707016,0.07994943112134933,-0.9928515553474426,28908.45059475,unknown,2,2020-03-06 13:36:35.936 +0100,605190998.5088062,0,-0.2399998,98.77963
2020-03-06 13:36:39.277 +0100,28911.790637375,0.22088623046875,0.0357513427734375,-1.220977783203125,28911.785613375,-1.800241065213806,0.09434104016702097,-0.08223485318192031,-0.3145746290683746,0.01100263837724924,2.31538724899292,0.1216641068458557,-0.05525515973567963,-0.2296433448791504,XArbitraryZVertical,0.01138904641880937,0.06144814374246024,-0.7830736954722413,0.6187810406650334,0.09388282150030136,0.08214219659566879,-0.9921888113021851,28908.45059475,unknown,2,2020-03-06 13:36:35.936 +0100,605190998.5088062,0,-0.2399998,98.77963
2020-03-06 13:36:39.297 +0100,28911.810735375,0.2300262451171875,0.042205810546875,-1.206558227539062,28911.805710375,-1.752393102445523,0.09700466913405066,-0.08533625597906101,-0.450837254524231,-0.1482364535331726,2.375932216644287,0.1305519342422485,-0.04333098977804184,-0.2230141162872314,XArbitraryZVertical,0.009945782480311208,0.06373872492956165,-0.7680316616531557,0.6371543758210926,0.09650016576051712,0.08523271977901459,-0.991676926612854,28908.45059475,unknown,2,2020-03-06 13:36:35.936 +0100,605190998.5088062,0,-0.2399998,98.77963
2020-03-06 13:36:39.317 +0100,28911.8308335,0.220733642578125,0.059661865234375,-1.179702758789062,28911.825808375,-1.703307257352182,0.09638382339646337,-0.09101416470941294,-0.5767726302146912,-0.3496138751506805,2.39660906791687,0.1315514296293259,-0.04471429437398911,-0.205477237701416,XArbitraryZVertical,0.006274436482904691,0.06588744117159698,-0.7521628421852985,0.6556451034900697,0.09583634883165359,0.09088855981826782,-0.9912389516830444,28908.45059475,unknown,2,2020-03-06 13:36:35.936 +0100,605190998.5088062,0,-0.2399998,98.77963
2020-03-06 13:36:39.337 +0100,28911.8509305,0.1901092529296875,0.0801239013671875,-1.128768920898438,28911.8459065,-1.65480016362657,0.09180199457774885,-0.09859695142038552,-0.6122872829437256,-0.5628260374069214,2.312657833099365,0.1141261383891106,-0.02041781693696976,-0.1718125343322754,XArbitraryZVertical,0.0004220557851240488,0.06725615531740177,-0.7360357352277492,0.6735931771888463,0.09122787415981293,0.09843727946281433,-0.9909528493881226,28908.45059475,unknown,2,2020-03-06 13:36:35.936 +0100,605190998.5088062,0,-0.2399998,98.77963
2020-03-06 13:36:39.357 +0100,28911.8710285,0.16021728515625,0.057891845703125,-1.062515258789062,28911.8660045,-1.607733763892494,0.08355983214337387,-0.1074289919993281,-0.6888525485992432,-0.7393884062767029,2.252134323120117,0.09319760650396347,-0.034909687936306,-0.1047691106796265,XArbitraryZVertical,-0.007192249842984717,0.06756651529301834,-0.7199349567117105,0.6907073198477798,0.08298146724700928,0.1072224751114845,-0.9907660484313965,28908.45059475,unknown,2,2020-03-06 13:36:35.936 +0100,605190998.5088062,0,-0.2399998,98.77963
2020-03-06 13:36:39.378 +0100,28911.8911255,0.1139068603515625,0.0550689697265625,-1.005615234375,28911.8861015,-1.562000002766486,0.0720973000920884,-0.1191519482248544,-0.822109580039978,-0.910929799079895,2.160006046295166,0.06562282890081406,-0.07200890779495239,-0.04061436653137207,XArbitraryZVertical,-0.01693157217417007,0.06744000041888015,-0.7038084964820994,0.7069786660804455,0.07152411341667175,0.1188702136278152,-0.9903303384780884,28908.45059475,unknown,2,2020-03-06 13:36:35.936 +0100,605190998.5088062,0,-0.2399998,98.77963
2020-03-06 13:36:39.398 +0100,28911.9112235,0.074920654296875,0.097930908203125,-0.9876556396484375,28911.9061985,-1.518176735117671,0.05814527160835257,-0.133914267075853,-0.909719705581665,-1.02176821231842,2.056932687759399,0.03573126345872879,-0.05264107882976532,-0.001213133335113525,XArbitraryZVertical,-0.02855627964244488,0.06707097643715862,-0.6878388837906462,0.7221936308254078,0.05759222432971001,0.1335143744945526,-0.9893720746040344,28908.45059475,unknown,2,2020-03-06 13:36:35.936 +0100,605190998.5088062,0,-0.2399998,98.77963
2020-03-06 13:36:39.418 +0100,28911.9313205,0.03167724609375,0.0976715087890625,-1.00238037109375,28911.9262965,-1.476395101494818,0.04265749735027301,-0.1501549783151054,-0.8947194814682007,-1.098431348800659,1.978792071342468,0.01336252689361572,-0.04972067475318909,-0.003713309764862061,XArbitraryZVertical,-0.04115696089875544,0.06619577063980114,-0.6720906814791575,0.7363547529962896,0.04216472059488297,0.1495913714170456,-0.9878484606742859,28908.45059475,unknown,2,2020-03-06 13:36:35.936 +0100,605190998.5088062,0,-0.2399998,98.77963
2020-03-06 13:36:39.438 +0100,28911.9514185,-0.023681640625,0.1012725830078125,-1.057601928710938,28911.9463935,-1.436504631479654,0.02618173452992265,-0.1661698235216177,-0.833582878112793,-1.161762714385986,1.878533959388733,-0.01820371299982071,-0.06443662941455841,-0.04421788454055786,XArbitraryZVertical,-0.05389731743790572,0.06443068176915082,-0.6565614912831121,0.7495803924986942,0.02581814490258694,0.1654061526060104,-0.9858875274658203,28908.45059475,unknown,2,2020-03-06 13:36:35.936 +0100,605190998.5088062,0,-0.2399998,98.77963
2020-03-06 13:36:39.458 +0100,28911.9715155,-0.0673828125,0.11151123046875,-1.122833251953125,28911.9664915,-1.398689808603507,0.00920173204358278,-0.1818481301607136,-0.8067340850830078,-1.178193688392639,1.811799168586731,-0.05389538407325745,-0.0779094398021698,-0.1015827655792236,XArbitraryZVertical,-0.06653494018474737,0.06195441525498072,-0.6413703835330911,0.7618259174708198,0.00904987845569849,0.1808475404977798,-0.9834694862365723,28908.45059475,unknown,2,2020-03-06 13:36:35.936 +0100,605190998.5088062,0,-0.2399998,98.77963
2020-03-06 13:36:39.478 +0100,28911.9916135,-0.1120758056640625,0.1382904052734375,-1.221908569335938,28911.9865885,-1.36222824995529,-0.008149548848364782,-0.1982844868787362,-0.815136730670929,-1.23769474029541,1.749297857284546,-0.07935167849063873,-0.06983372569084167,-0.193103551864624,XArbitraryZVertical,-0.07944716171710189,0.05917304395644593,-0.6262484340680088,0.7733043403700702,-0.007989778183400631,0.1969877183437347,-0.9803733825683594,28908.45059475,unknown,2,2020-03-06 13:36:35.936 +0100,605190998.5088062,0,-0.2399998,98.77963
2020-03-06 13:36:39.498 +0100,28912.0117105,-0.1524200439453125,0.1667327880859375,-1.301666259765625,28912.0066865,-1.32709352965463,-0.0265211771394012,-0.2135137331839233,-0.6000502705574036,-1.309161901473999,1.69112491607666,-0.1084381192922592,-0.06433999538421631,-0.2882792949676514,XArbitraryZVertical,-0.0920580285913606,0.05523547757742316,-0.6112414812474328,0.7841288671123796,-0.02591590583324432,0.211895152926445,-0.9769487380981445,28908.45059475,unknown,2,2020-03-06 13:36:35.936 +0100,605190998.5088062,0,-0.2399998,98.77963
2020-03-06 13:36:39.518 +0100,28912.0318085,-0.189727783203125,0.19927978515625,-1.353729248046875,28912.0267835,-1.293895909916029,-0.04641242138899291,-0.2231990949543503,-0.2393237352371216,-1.386383891105652,1.553014755249023,-0.1289195716381073,-0.02998723089694977,-0.362861156463623,XArbitraryZVertical,-0.1027390286196345,0.04870942414198669,-0.5967810314484594,0.7943075338090356,-0.04524488002061844,0.2213504910469055,-0.9741441607475281,28908.45059475,unknown,2,2020-03-06 13:36:35.936 +0100,605190998.5088062,0,-0.2399998,98.77963
2020-03-06 13:36:39.538 +0100,28912.0519055,-0.2331390380859375,0.16436767578125,-1.306976318359375,28912.0468815,-1.263841304181448,-0.06824838464244867,-0.2263339340209481,0.05833122879266739,-1.441517233848572,1.374667048454285,-0.1441160440444946,-0.03060179948806763,-0.3741319179534912,XArbitraryZVertical,-0.1110901614852702,0.03931261990767681,-0.583466749495872,0.8035421804376769,-0.06645613163709641,0.2244064807891846,-0.9722269773483276,28908.45059475,unknown,2,2020-03-06 13:36:35.936 +0100,605190998.5088062,0,-0.2399998,98.77963
2020-03-06 13:36:39.558 +0100,28912.0720035,-0.290924072265625,0.087188720703125,-1.285232543945312,28912.0669785,-1.237184861733637,-0.09121452137494623,-0.2265141762454999,0.08888622373342514,-1.459624886512756,1.199877262115479,-0.1730197370052338,-0.1007694602012634,-0.3300409913063049,XArbitraryZVertical,-0.118245766578633,0.02856289268222823,-0.5713769436500802,0.8116221188978905,-0.08876125514507294,0.2245821207761765,-0.9704042077064514,28908.45059475,unknown,2,2020-03-06 13:36:35.936 +0100,605190998.5088062,0,-0.2399998,98.77963
2020-03-06 13:36:39.579 +0100,28912.0921005,-0.3341217041015625,0.0582122802734375,-1.24835205078125,28912.0870765,-1.214454915149936,-0.1161080136398382,-0.2280974521330578,-0.010208610445261,-1.519376158714294,1.004443407058716,-0.2041409015655518,-0.164735734462738,-0.2951093316078186,XArbitraryZVertical,-0.1261917647472709,0.01748546550150028,-0.5605083490504335,0.8182909825316059,-0.1128466799855232,0.2261246591806412,-0.9675397872924805,28908.45059475,unknown,2,2020-03-06 13:36:35.936 +0100,605190998.5088062,0,-0.2399998,98.77963
2020-03-06 13:36:39.599 +0100,28912.1121985,-0.334075927734375,0.0976409912109375,-1.205184936523438,28912.1071735,-1.195905896164708,-0.1427882248754681,-0.2308659323990006,-0.01081843487918377,-1.561187148094177,0.8169336318969727,-0.2032707035541534,-0.1549651473760605,-0.2627562284469604,XArbitraryZVertical,-0.1348399959421007,0.006109772634984882,-0.5509903846800394,0.8235231458339537,-0.1385280042886734,0.2288205623626709,-0.9635617136955261,28908.45059475,unknown,2,2020-03-06 13:36:35.936 +0100,605190998.5088062,0,-0.2399998,98.77963
2020-03-06 13:36:39.619 +0100,28912.1322955,-0.3095703125,0.1281585693359375,-1.152450561523438,28912.1272715,-1.180802038570995,-0.1713843140966099,-0.2327765708215351,0.0592566542327404,-1.63748300075531,0.6640474200248718,-0.1539405733346939,-0.1112161725759506,-0.2189136743545532,XArbitraryZVertical,-0.1434372891524794,-0.00620857871294917,-0.5426426178334862,0.8276026938326234,-0.1659468412399292,0.2306800931692123,-0.9587743878364563,28908.45059475,unknown,2,2020-03-06 13:36:35.936 +0100,605190998.5088062,0,-0.2399998,98.77963
2020-03-06 13:36:39.639 +0100,28912.1523925,-0.30352783203125,0.1324310302734375,-1.095504760742188,28912.1473685,-1.167969253484874,-0.2021383715854884,-0.232923336098929,0.1483145952224731,-1.719055652618408,0.5690987706184387,-0.106997013092041,-0.101135641336441,-0.1721652746200562,XArbitraryZVertical,-0.1516996559795507,-0.0198660917424228,-0.5350420388608571,0.8308564917274682,-0.1953431218862534,0.2308229058980942,-0.9531850814819336,28908.45059475,unknown,2,2020-03-06 13:36:35.936 +0100,605190998.5088062,0,-0.2399998,98.77963
2020-03-06 13:36:39.659 +0100,28912.1724905,-0.304595947265625,0.141204833984375,-1.062454223632812,28912.1674665,-1.156943756295802,-0.2349431612035285,-0.2323282705918159,0.1221378818154335,-1.809800982475281,0.4542677998542786,-0.0805068165063858,-0.0885479748249054,-0.1321834325790405,XArbitraryZVertical,-0.1600242350019728,-0.03453873314456825,-0.527943725240231,0.8333515148043853,-0.2265333980321884,0.2302438616752625,-0.9463986158370972,28908.45059475,unknown,2,2020-03-06 13:36:35.936 +0100,605190998.5088062,0,-0.2399998,98.77963
2020-03-06 13:36:39.694 +0100,28912.1925875,-0.3302459716796875,0.1513214111328125,-1.018951416015625,28912.1875635,-1.148428492738714,-0.2706532645327441,-0.2322718626139956,0.1028966903686523,-1.927907109260559,0.3451539874076843,-0.04800382256507874,-0.08846250176429749,-0.1095967292785645,XArbitraryZVertical,-0.1691897087462297,-0.05014831748531997,-0.5214577544264956,0.8348304093629437,-0.2601812481880188,0.2301889657974243,-0.937720000743866,28908.45059475,unknown,2,2020-03-06 13:36:35.936 +0100,605190998.5088062,0,-0.2399998,98.77963
2020-03-06 13:36:39.699 +0100,28912.2126855,-0.4347076416015625,0.186431884765625,-1.0174560546875,28912.2076605,-1.142440336617783,-0.3088853424495148,-0.2316693661879696,0.1108115762472153,-2.009291172027588,0.1731574535369873,-0.07947921752929688,-0.06027300655841827,-0.08374834060668945,XArbitraryZVertical,-0.1786818794374724,-0.06679721508146698,-0.5156872540809806,0.8352709202171754,-0.2958754897117615,0.2296026051044464,-0.9272218346595764,28908.45059475,unknown,2,2020-03-06 13:36:35.936 +0100,605190998.5088062,0,-0.2399998,98.77963
2020-03-06 13:36:39.719 +0100,28912.2327825,-0.57940673828125,0.21234130859375,-1.062896728515625,28912.2277585,-1.141016712485322,-0.3492095259448331,-0.2312464082798982,-0.07106604427099228,-2.014710664749146,-0.05640963464975357,-0.174433559179306,-0.02893173694610596,-0.1185094118118286,XArbitraryZVertical,-0.1888107900709856,-0.08387314685161831,-0.511430170974242,0.8341192988566217,-0.333047479391098,0.229190930724144,-0.9146315455436707,28908.45059475,unknown,2,2020-03-06 13:36:35.936 +0100,605190998.5088062,0,-0.2399998,98.77963
2020-03-06 13:36:39.739 +0100,28912.2528805,-0.6411590576171875,0.2669525146484375,-1.152023315429688,28912.2478555,-1.145795121586515,-0.3904811597868421,-0.2345083953152776,-0.373179703950882,-1.980189204216003,-0.2450363785028458,-0.2547439932823181,-0.005402743816375732,-0.2092567682266235,XArbitraryZVertical,-0.2008800496982266,-0.09969794853500806,-0.5090473198262846,0.8310103772841931,-0.370214968919754,0.2323648631572723,-0.8994150757789612,28908.45059475,unknown,2,2020-03-06 13:36:35.936 +0100,605190998.5088062,0,-0.2399998,98.77963
2020-03-06 13:36:39.759 +0100,28912.2729775,-0.6072998046875,0.4655609130859375,-1.209945678710938,28912.2679535,-1.155359310498088,-0.4329968791587526,-0.2391458687577515,-0.3521733283996582,-2.047628402709961,-0.4295322597026825,-0.2258222699165344,0.1166457235813141,-0.3051917552947998,XArbitraryZVertical,-0.2140655243870143,-0.1150488096905534,-0.5080590587956234,0.8263265900873964,-0.4076516330242157,0.2368728965520859,-0.881879448890686,28908.45059475,unknown,2,2020-03-06 13:36:35.936 +0100,605190998.5088062,0,-0.2399998,98.77963
2020-03-06 13:36:39.779 +0100,28912.2930755,-0.53857421875,0.6226959228515625,-1.17254638671875,28912.2880505,-1.166439020995444,-0.4779201998980172,-0.2369526835602947,0.1344999521970749,-2.142172813415527,-0.6183828711509705,-0.1251742839813232,0.3312098979949951,-0.3437348604202271,XArbitraryZVertical,-0.2252929186408206,-0.13293636809166,-0.507962342491868,0.8206979901266974,-0.4470818638801575,0.2347415536642075,-0.8631420731544495,28908.45059475,unknown,2,2020-03-06 13:36:35.936 +0100,605190998.5088062,0,-0.2399998,98.77963
2020-03-06 13:36:39.800 +0100,28912.3131725,-0.476043701171875,0.583831787109375,-1.030899047851562,28912.3081485,-1.17421111239108,-0.5223804518745967,-0.2236882807966619,0.5943329334259033,-2.094857692718506,-0.6579416990280151,-0.02307504415512085,0.4076765775680542,-0.2582727670669556,XArbitraryZVertical,-0.2319239730546481,-0.1539155888965806,-0.5078263946559478,0.815250589687821,-0.4865137934684753,0.221827507019043,-0.8450425267219543,28908.45059475,unknown,2,2020-03-06 13:36:35.936 +0100,605190998.5088062,0,-0.2399998,98.77963
2020-03-06 13:36:39.820 +0100,28912.3332705,-0.4206390380859375,0.4108734130859375,-0.893768310546875,28912.3282455,-1.180181438020917,-0.56521056474349,-0.2073369843401492,0.3720546662807465,-2.045480251312256,-0.6848597526550293,0.07948994636535645,0.2991986274719238,-0.1383758783340454,XArbitraryZVertical,-0.2369061435229998,-0.1751593585078843,-0.5075178407109602,0.8097038878686663,-0.5241225957870483,0.2058546543121338,-0.8263893723487854,28908.45059475,unknown,2,2020-03-06 13:36:35.936 +0100,605190998.5088062,0,-0.2399998,98.77963
2020-03-06 13:36:39.840 +0100,28912.3533675,-0.380645751953125,0.2570953369140625,-0.7867279052734375,28912.3483435,-1.192275227714139,-0.6083006656375104,-0.1996618360063075,-0.4423605501651764,-2.015497922897339,-0.7132419943809509,0.1618439555168152,0.1249829828739166,-0.03538632392883301,XArbitraryZVertical,-0.2459960580966981,-0.1932023031016748,-0.5083142599101905,0.8023560838663882,-0.560120701789856,0.1983378976583481,-0.8043175935745239,28908.45059475,unknown,2,2020-03-06 13:36:35.936 +0100,605190998.5088062,0,-0.2399998,98.77963
2020-03-06 13:36:39.860 +0100,28912.3734655,-0.3733062744140625,0.2151336669921875,-0.6836090087890625,28912.3684405,-1.215488417433274,-0.6532133936584924,-0.2063048668352346,-1.422320246696472,-1.965744495391846,-0.7141363024711609,0.2216011881828308,0.01731067895889282,0.05114728212356567,XArbitraryZVertical,-0.2622892028151314,-0.2062932204617459,-0.5108359086738703,0.7922714611219214,-0.594853937625885,0.2048445343971252,-0.777294933795929,28908.45059475,unknown,2,2020-03-06 13:36:35.936 +0100,605190998.5088062,0,-0.2399998,98.77963
2020-03-06 13:36:39.880 +0100,28912.3935625,-0.3680267333984375,0.29937744140625,-0.5879058837890625,28912.3885385,-1.249812827565175,-0.6989665884537084,-0.2249943922873064,-2.030581712722778,-1.837811827659607,-0.7171680927276611,0.2613112926483154,0.01765498518943787,0.108917772769928,XArbitraryZVertical,-0.2845935497377833,-0.2142426722904834,-0.5150073332237184,0.7796627696058479,-0.6272096037864685,0.2231009006500244,-0.7462131977081299,28908.45059475,unknown,2,2020-03-06 13:36:35.936 +0100,605190998.5088062,0,-0.2399998,98.77963
2020-03-06 13:36:39.900 +0100,28912.4136605,-0.428436279296875,0.45135498046875,-0.5316314697265625,28912.4086355,-1.289256992410011,-0.7427199667846318,-0.2467867918343999,-2.01064395904541,-1.600691676139832,-0.7252551913261414,0.2635075449943542,0.1324836164712906,0.1611098051071167,XArbitraryZVertical,-0.3080739164798859,-0.2189375621670339,-0.5199826607389427,0.7660123384294276,-0.655803918838501,0.244289368391037,-0.7143136262893677,28908.45059475,unknown,2,2020-03-06 13:36:35.936 +0100,605190998.5088062,0,-0.2399998,98.77963
2020-03-06 13:36:39.920 +0100,28912.4337575,-0.5209503173828125,0.555999755859375,-0.46539306640625,28912.4287335,-1.325034971318615,-0.7811978727396249,-0.2619659544739715,-1.400825619697571,-1.314631819725037,-0.7273383140563965,0.2070308327674866,0.2545882165431976,0.1905332207679749,XArbitraryZVertical,-0.3274116793147157,-0.223336385709362,-0.5246946121016678,0.7534042923161846,-0.6801074743270874,0.2589799463748932,-0.685844898223877,28908.45059475,unknown,2,2020-03-06 13:36:35.936 +0100,605190998.5088062,0,-0.2399998,98.77963
2020-03-06 13:36:39.940 +0100,28912.4538545,-0.6171875,0.5413055419921875,-0.476165771484375,28912.4488305,-1.350461681120341,-0.8102507224085952,-0.265608292883199,-0.5924082398414612,-0.9048264622688293,-0.7185956835746765,0.1298176646232605,0.3044471442699432,0.2143124341964722,XArbitraryZVertical,-0.3391859615244613,-0.2288681105611991,-0.5286840682491588,0.7436836770276767,-0.6990553736686707,0.262496292591095,-0.6651445627212524,28908.45059475,unknown,2,2020-03-06 13:36:35.936 +0100,605190998.5088062,0,-0.2399998,98.77963
2020-03-06 13:36:39.960 +0100,28912.4739525,-0.6568603515625,0.41217041015625,-0.580718994140625,28912.4689285,-1.364107702505504,-0.8286530915446021,-0.2584574418021489,0.06143110617995262,-0.6009482741355896,-0.6949804425239563,0.06397354602813721,0.2339765131473541,0.1301549077033997,XArbitraryZVertical,-0.3432358710962234,-0.2355397501367269,-0.5319654403247425,0.737375650765786,-0.7125418186187744,0.2555895447731018,-0.6534203290939331,28908.45059475,unknown,2,2020-03-06 13:36:35.936 +0100,605190998.5088062,0,-0.2399998,98.77963
2020-03-06 13:36:39.980 +0100,28912.4940495,-0.6231536865234375,0.2848663330078125,-0.5831146240234375,28912.4890255,-1.370285845484684,-0.8404589459602922,-0.2456694972094851,0.2721805274486542,-0.4333297312259674,-0.6459399461746216,0.08213138580322266,0.09365019202232361,0.04197704792022705,XArbitraryZVertical,-0.3428324662190008,-0.2427357652090643,-0.5346692065811013,0.733262602202114,-0.7225820422172546,0.2432057708501816,-0.6470904946327209,28908.45059475,unknown,2,2020-03-06 13:36:35.936 +0100,605190998.5088062,0,-0.2399998,98.77963
2020-03-06 13:36:40.001 +0100,28912.5141475,-0.651641845703125,0.22918701171875,-0.4501800537109375,28912.5091225,-1.376845219139212,-0.8495907388476556,-0.2342488938628371,-0.05125140026211739,-0.3297483026981354,-0.6359160542488098,0.1025608777999878,0.02481776475906372,0.1158028841018677,XArbitraryZVertical,-0.3422653425916105,-0.2484467219654282,-0.5376966263635977,0.7293908040669074,-0.7304993271827698,0.2321124523878098,-0.6422573328018188,28908.45059475,unknown,2,2020-03-06 13:36:35.936 +0100,605190998.5088062,0,-0.2399998,98.77963
2020-03-06 13:36:40.021 +0100,28912.5342445,-0.700531005859375,0.2650299072265625,-0.3502197265625,28912.5292205,-1.388672435101404,-0.858046719955081,-0.2272498721577553,-0.2834801971912384,-0.2173457890748978,-0.6271188259124756,0.0581815242767334,-0.002167016267776489,0.2572562694549561,XArbitraryZVertical,-0.3436949636351693,-0.2516380780186077,-0.541888096813152,0.7245062756055344,-0.7371151447296143,0.2252989560365677,-0.6371040940284729,28908.45059475,unknown,2,2020-03-06 13:36:35.936 +0100,605190998.5088062,0,-0.2399998,98.77963
2020-03-06 13:36:40.041 +0100,28912.5543425,-0.73101806640625,0.38226318359375,-0.4381256103515625,28912.5493175,-1.399634397646574,-0.862153512832415,-0.219959660261368,0.048898596316576,0.0509992390871048,-0.6341730356216431,0.02146124839782715,0.1128822267055511,0.2569237351417542,XArbitraryZVertical,-0.3437811373361899,-0.2534811971491338,-0.5465370399585744,0.7203187260984588,-0.740952730178833,0.2181902527809143,-0.635123610496521,28908.45059475,unknown,2,2020-03-06 13:36:35.936 +0100,605190998.5088062,0,-0.2399998,98.77963
2020-03-06 13:36:40.061 +0100,28912.5744395,-0.698699951171875,0.3726806640625,-0.5289306640625,28912.5694155,-1.402914674252485,-0.8592661947726175,-0.2052627151727768,0.6253050565719604,0.3084629476070404,-0.6619358658790588,0.0128483772277832,0.184270054101944,0.1560744643211365,XArbitraryZVertical,-0.3385404074430211,-0.2564131196297467,-0.5509965332657076,0.7183630614818602,-0.7414646148681641,0.203824371099472,-0.6392853856086731,28908.45059475,unknown,2,2020-03-06 13:36:35.936 +0100,605190998.5088062,0,-0.2399998,98.77963
2020-03-06 13:36:40.081 +0100,28912.5945375,-0.6128692626953125,0.32354736328125,-0.5577392578125,28912.5895125,-1.40086788259373,-0.8512907062418913,-0.1860231744239688,0.6671907305717468,0.412030965089798,-0.6575574278831482,0.09145665168762207,0.1698473691940308,0.08987784385681152,XArbitraryZVertical,-0.3296642665700208,-0.2598072699595179,-0.5551795736037246,0.7180510279980262,-0.7391554713249207,0.1849521547555923,-0.6476433277130127,28908.45059475,unknown,2,2020-03-06 13:36:35.936 +0100,605190998.5088062,0,-0.2399998,98.77963
2020-03-06 13:36:40.101 +0100,28912.6146345,-0.6035308837890625,0.25341796875,-0.5589599609375,28912.6096105,-1.40171450457898,-0.84321886674181,-0.1698523521618729,0.3313921391963959,0.4037637710571289,-0.5843198299407959,0.1332337260246277,0.1167927980422974,0.1003814935684204,XArbitraryZVertical,-0.3221030986470224,-0.2617318811727021,-0.5597514681130749,0.717233766425964,-0.736041247844696,0.1690368205308914,-0.6554920077323914,28908.45059475,unknown,2,2020-03-06 13:36:35.936 +0100,605190998.5088062,0,-0.2399998,98.77963
2020-03-06 13:36:40.121 +0100,28912.6347325,-0.576690673828125,0.1162872314453125,-0.518402099609375,28912.6297075,-1.405904294302788,-0.8348337156645715,-0.1602385653490149,-0.02273661270737648,0.5173415541648865,-0.388006180524826,0.135428249835968,0.03309041261672974,0.1229561567306519,XArbitraryZVertical,-0.3170575322055758,-0.2610057133358382,-0.564316418342409,0.716168664680189,-0.7316897511482239,0.1595537215471268,-0.6627010703086853,28908.45059475,unknown,2,2020-03-06 13:36:35.936 +0100,605190998.5088062,0,-0.2399998,98.77963
2020-03-06 13:36:40.141 +0100,28912.6548295,-0.5403594970703125,0.064666748046875,-0.4981842041015625,28912.6498055,-1.414848991557564,-0.8251844097880252,-0.1604873613126365,-0.7083625793457031,0.5555649399757385,-0.2086477726697922,0.1716190576553345,-0.08483099937438965,0.1647636294364929,XArbitraryZVertical,-0.3155636764511011,-0.2560621894146483,-0.5689986891815448,0.7149070979670902,-0.7252320051193237,0.1597993224859238,-0.6697034239768982,28908.45059475,unknown,2,2020-03-06 13:36:35.936 +0100,605190998.5088062,0,-0.2399998,98.77963
2020-03-06 13:36:40.161 +0100,28912.6749275,-0.5245361328125,0.1201171875,-0.5196075439453125,28912.6699025,-1.433657939116676,-0.8167566093780362,-0.1739917452391898,-1.53579306602478,0.6017320156097412,-0.06225820630788803,0.1807903051376343,-0.09494242072105408,0.1676954030990601,XArbitraryZVertical,-0.3200374438288263,-0.2458651119253734,-0.5746769712680272,0.7119498648584447,-0.7179235816001892,0.1731151938438416,-0.6742527484893799,28908.45059475,unknown,2,2020-03-06 13:36:35.936 +0100,605190998.5088062,0,-0.2399998,98.77963
2020-03-06 13:36:40.194 +0100,28912.6950245,-0.4768218994140625,0.2532501220703125,-0.5988922119140625,28912.6900005,-1.459985024198964,-0.8094213399525078,-0.1985255054034948,-1.863806366920471,0.5987831950187683,0.06716988980770111,0.2091729640960693,-0.01448243856430054,0.1240631341934204,XArbitraryZVertical,-0.3291685587462654,-0.2312247104638563,-0.5808973703889219,0.7076308667020706,-0.7096697688102722,0.1972240060567856,-0.67636638879776,28908.45059475,unknown,2,2020-03-06 13:36:35.936 +0100,605190998.5088062,0,-0.2399998,98.77963
2020-03-06 13:36:40.202 +0100,28912.7151225,-0.4919281005859375,0.3110504150390625,-0.6081695556640625,28912.7100975,-1.483162082260592,-0.8018992259917622,-0.2245270340160533,-1.532309889793396,0.6443027853965759,0.2453172653913498,0.2278217077255249,0.09310738742351532,0.05417507886886597,XArbitraryZVertical,-0.3380234244264944,-0.2163224015636853,-0.5857282069842606,0.7041783544223321,-0.7006388306617737,0.2226452976465225,-0.6778895854949951,28908.45059475,unknown,2,2020-03-06 13:36:35.936 +0100,605190998.5088062,0,-0.2399998,98.77963
2020-03-06 13:36:40.222 +0100,28912.7352195,-0.5182037353515625,0.1864776611328125,-0.573638916015625,28912.7301955,-1.499532630687141,-0.7919872648207605,-0.2487145561216189,-1.33622944355011,0.7175896763801575,0.3507219552993774,0.1715309023857117,0.003814071416854858,0.09351122379302979,XArbitraryZVertical,-0.3445807472778768,-0.2021262581962349,-0.5888615205234228,0.7026031314269121,-0.6898497939109802,0.2461582720279694,-0.6808181405067444,28908.45059475,unknown,2,2020-03-06 13:36:35.936 +0100,605190998.5088062,0,-0.2399998,98.77963
2020-03-06 13:36:40.242 +0100,28912.7553175,-0.4714813232421875,0.1671295166015625,-0.57574462890625,28912.7502925,-1.51371674370073,-0.7805802085804033,-0.2735468321733429,-1.398933887481689,0.7837839126586914,0.4291583597660065,0.1797471642494202,-0.1184877753257751,0.1097509860992432,XArbitraryZVertical,-0.3504673028087983,-0.1874265368854488,-0.5913619365106447,0.7016659201495969,-0.6775276660919189,0.2701480984687805,-0.6840879321098328,28908.45059475,unknown,2,2020-03-06 13:36:35.936 +0100,605190998.5088062,0,-0.2399998,98.77963
2020-03-06 13:36:40.262 +0100,28912.7754145,-0.47564697265625,0.23577880859375,-0.530670166015625,28912.7703905,-1.528181027012777,-0.7682481593352711,-0.3006546056860658,-1.496737003326416,0.8580418229103088,0.4609377980232239,0.1969166398048401,-0.08868348598480225,0.1365970969200134,XArbitraryZVertical,-0.3566062260268937,-0.1714540944135763,-0.5937055756718442,0.7006776370901301,-0.6637063026428223,0.296145498752594,-0.6868709921836853,28908.45059475,unknown,2,2020-03-06 13:36:35.936 +0100,605190998.5088062,0,-0.2399998,98.77963
2020-03-06 13:36:40.282 +0100,28912.7955115,-0.4420623779296875,0.3149566650390625,-0.5514068603515625,28912.7904875,-1.543577276975306,-0.7550760573792629,-0.3292727081731938,-1.543747305870056,0.9108723998069763,0.4530352354049683,0.1752361655235291,-0.05961817502975464,0.1550134420394897,XArbitraryZVertical,-0.3627997976157311,-0.1543611871751745,-0.5962377925718487,0.6993207331210869,-0.6485258340835571,0.3233548998832703,-0.6890978813171387,28908.45059475,unknown,2,2020-03-06 13:36:35.936 +0100,605190998.5088062,0,-0.2399998,98.77963
2020-03-06 13:36:40.302 +0100,28912.8156095,-0.3558197021484375,0.469451904296875,-0.652252197265625,28912.8105855,-1.556680815903726,-0.7425167903560543,-0.3561847466767337,-1.119231939315796,0.7615498900413513,0.4793407917022705,0.2379611134529114,0.04324042797088623,0.1109390258789062,XArbitraryZVertical,-0.368237029777608,-0.1383435031649338,-0.5981529415175665,0.6981945048013699,-0.6337054967880249,0.348701000213623,-0.6905251145362854,28908.45059475,unknown,2,2020-03-06 13:36:35.936 +0100,605190998.5088062,0,-0.2399998,98.77963
2020-03-06 13:36:40.322 +0100,28912.83570604167,-0.2968597412109375,0.4752960205078125,-1.083770751953125,28912.83068204167,-1.55786969857555,-0.7292729876356716,-0.3732135993076189,-0.3243199288845062,0.5581470131874084,0.545524537563324,0.2719550132751465,0.1385684013366699,-0.01375234127044678,XArbitraryZVertical,-0.3695278233267846,-0.1276130860530048,-0.5978553114446816,0.6998092918116856,-0.6204580068588257,0.3646096885204315,-0.6943281888961792,28908.45059475,unknown,2,2020-03-06 13:36:35.936 +0100,605190998.5088062,0,-0.2399998,98.77963
2020-03-06 13:36:40.342 +0100,28912.85580404167,-0.0472412109375,0.9197235107421875,-0.415771484375,28912.85078004167,-1.543222238607242,-0.7145655923071583,-0.3669695260890095,1.525820255279541,0.5685774683952332,0.107635498046875,0.523135781288147,-0.03758656978607178,-0.1106166839599609,XArbitraryZVertical,-0.3622941121115528,-0.1272829068631503,-0.5965530325253979,0.704745637841228,-0.6116594672203064,0.3587883710861206,-0.7050840854644775,28908.45059475,unknown,2,2020-03-06 13:36:35.936 +0100,605190998.5088062,0,-0.2399998,98.77963
2020-03-06 13:36:40.362 +0100,28912.87590104167,-0.5160675048828125,0.101806640625,-0.9902496337890625,28912.87087704167,-1.535996465920981,-0.7088656814955868,-0.3621010894856496,0.2942098379135132,-0.170173317193985,0.2151906788349152,0.2841070294380188,0.5354433655738831,-0.06119227409362793,XArbitraryZVertical,-0.3586289844199276,-0.128245688951273,-0.5959168649466172,0.7069804966535359,-0.6087605357170105,0.3542398512363434,-0.7098765969276428,28908.45059475,unknown,2,2020-03-06 13:36:35.936 +0100,605190998.5088062,0,-0.2399998,98.77963
2020-03-06 13:36:40.382 +0100,28912.89599904167,-0.61358642578125,0.5713043212890625,-0.85955810546875,28912.89097404167,-1.508133823214616,-0.6998557293808799,-0.3460075996459618,1.480935215950012,0.08579154312610626,0.6481170654296875,0.03733807802200317,-0.2186724841594696,0.08248859643936157,XArbitraryZVertical,-0.3490728592504313,-0.1354541333843596,-0.5905023658189048,0.7149176624910543,-0.6059337854385376,0.3391447365283966,-0.7196006178855896,28908.45059475,unknown,2,2020-03-06 13:36:35.936 +0100,605190998.5088062,0,-0.2399998,98.77963
2020-03-06 13:36:40.403 +0100,28912.91609604167,-0.6615142822265625,0.350677490234375,-0.8739166259765625,28912.91107204167,-1.48812604414547,-0.6956274072179019,-0.3298444021421205,1.04873251914978,-0.1883717328310013,-0.0105328569188714,0.009235918521881104,0.130011260509491,0.2175908088684082,XArbitraryZVertical,-0.3412699128960497,-0.1428284704140277,-0.5869177995583977,0.720182100553067,-0.606319785118103,0.3238958120346069,-0.7262697219848633,28908.45059475,unknown,2,2020-03-06 13:36:35.936 +0100,605190998.5088062,0,-0.2399998,98.77963
2020-03-06 13:36:40.423 +0100,28912.93619404167,-0.6284942626953125,0.3608245849609375,-0.7801666259765625,28912.93116904167,-1.464664970696577,-0.6892745936640127,-0.309233586170536,1.81552255153656,-0.1338218599557877,0.3909485638141632,-0.002320170402526855,0.005062282085418701,0.05680757761001587,XArbitraryZVertical,-0.3309815458397166,-0.1513261687314995,-0.5830929964868188,0.7263292012666103,-0.6058112978935242,0.3043286800384521,-0.7351031899452209,28908.45059475,unknown,2,2020-03-06 13:36:35.936 +0100,605190998.5088062,0,-0.2399998,98.77963
2020-03-06 13:36:40.443 +0100,28912.95629104167,-0.6430511474609375,0.01470947265625,-0.53277587890625,28912.95126704167,-1.432806330789648,-0.6802245310970608,-0.2833897010268738,1.582617998123169,0.1460262686014175,0.4350772798061371,-0.04917311668395996,-0.06369650363922119,0.269084632396698,XArbitraryZVertical,-0.3172713904809191,-0.1616408465525243,-0.5773265030983044,0.7347823482433211,-0.6038800477981567,0.279611736536026,-0.7464222311973572,28908.45059475,unknown,2,2020-03-06 13:36:35.936 +0100,605190998.5088062,0,-0.2399998,98.77963
2020-03-06 13:36:40.463 +0100,28912.97638904167,-0.4983673095703125,-0.203338623046875,-0.58587646484375,28912.97136404167,-1.413281654693777,-0.6739109104297416,-0.2772303206910895,0.3442493975162506,-0.1343368738889694,0.6277549266815186,0.03116524219512939,-0.4410325586795807,0.1742230653762817,XArbitraryZVertical,-0.3117804359364483,-0.1643691619787993,-0.5721500281110173,0.7405538717224943,-0.6002188324928284,0.273692786693573,-0.7515514492988586,28908.45059475,unknown,2,2020-03-06 13:36:35.936 +0100,605190998.5088062,0,-0.2399998,98.77963
2020-03-06 13:36:40.486 +0100,28912.99648604167,-0.533905029296875,0.1319732666015625,-0.473724365234375,28912.99146204167,-1.394043426881771,-0.6714633178995697,-0.2835170163659884,0.3530773222446442,-0.1415844857692719,1.191591024398804,0.1184057593345642,-0.3365999758243561,0.2011376619338989,XArbitraryZVertical,-0.3116536750945266,-0.1644500240410643,-0.5643269016878499,0.7465676845997848,-0.5972952246665955,0.2797339856624603,-0.7516563534736633,28908.45059475,unknown,2,2020-03-06 13:36:35.936 +0100,605190998.5088062,0,-0.2399998,98.77963
2020-03-06 13:36:40.503 +0100,28913.01658404167,-0.643646240234375,0.2806854248046875,-0.621124267578125,28913.01155904167,-1.368773084679451,-0.6648588592101731,-0.2925490893862094,0.4880162179470062,0.09463391453027725,1.225434064865112,-0.02670413255691528,-0.04867476224899292,0.2218456268310547,XArbitraryZVertical,-0.310856612098082,-0.1630503234014036,-0.554350896562714,0.7546375247938618,-0.5907350778579712,0.2883939445018768,-0.7535654902458191,28908.45059475,unknown,2,2020-03-06 13:36:35.936 +0100,605190998.5088062,0,-0.2399998,98.77963
2020-03-06 13:36:40.523 +0100,28913.03668104167,-0.477325439453125,0.417755126953125,-0.816192626953125,28913.03165704167,-1.342385016579509,-0.6534935215971346,-0.3017078276219033,0.2874415814876556,0.1796712726354599,1.236893653869629,-0.01671874523162842,0.01866355538368225,0.03178632259368896,XArbitraryZVertical,-0.3088035974624569,-0.159967269190218,-0.5445539843610945,0.7632245162097618,-0.5805023312568665,0.2971513271331787,-0.7581016421318054,28908.45059475,unknown,2,2020-03-06 13:36:35.936 +0100,605190998.5088062,0,-0.2399998,98.77963
2020-03-06 13:36:40.544 +0100,28913.05677904167,-0.2661895751953125,0.74444580078125,-0.9727325439453125,28913.05175404167,-1.323737702355901,-0.6473060352206029,-0.3130580582178695,-0.05598243325948715,-0.1287300437688828,0.8852737545967102,0.2417978048324585,0.3157830834388733,-0.1595144867897034,XArbitraryZVertical,-0.3096591224869985,-0.1569760881687681,-0.5364493018551602,0.7692150629691835,-0.5737295746803284,0.3079695105552673,-0.7589394450187683,28908.45059475,unknown,2,2020-03-06 13:36:35.936 +0100,605190998.5088062,0,-0.2399998,98.77963
2020-03-06 13:36:40.563 +0100,28913.07687604167,-0.36572265625,0.451263427734375,-1.007354736328125,28913.07185204167,-1.310516810734601,-0.6465718518980214,-0.3239389692376649,-0.08016091585159302,-0.1745631843805313,0.8012431263923645,0.2743593454360962,0.3725883364677429,-0.2900782823562622,XArbitraryZVertical,-0.3122910540054604,-0.1554149390225008,-0.529614487871207,0.7731939807723526,-0.5711195468902588,0.318303108215332,-0.7566409707069397,28908.45059475,unknown,2,2020-03-06 13:36:35.936 +0100,605190998.5088062,0,-0.2399998,98.77963
2020-03-06 13:36:40.583 +0100,28913.09697404167,-0.5612945556640625,-0.1289215087890625,-1.072235107421875,28913.09194904167,-1.302758654981877,-0.647717404436606,-0.3427168873082792,-0.985844612121582,-0.2495042085647583,0.8883318901062012,0.07718276977539062,-0.2251573801040649,-0.2694178819656372,XArbitraryZVertical,-0.3186672045948998,-0.1513533518084108,-0.5231942579602248,0.7757648393241301,-0.5682789087295532,0.3360472023487091,-0.7510867714881897,28908.45059475,unknown,2,2020-03-06 13:36:35.936 +0100,605190998.5088062,0,-0.2399998,98.77963
2020-03-06 13:36:40.603 +0100,28913.11707104167,-0.4901885986328125,0.381866455078125,-0.9440460205078125,28913.11204704167,-1.301628459871701,-0.6562397989862252,-0.3736864099266923,-1.365314245223999,-0.6434714794158936,1.086526036262512,0.0321999192237854,-0.3501070141792297,-0.3075025081634521,XArbitraryZVertical,-0.3317433483736952,-0.1453931407027688,-0.5159048773933489,0.7763048923790884,-0.568034827709198,0.3650498986244202,-0.7376143932342529,28908.45059475,unknown,2,2020-03-06 13:36:35.936 +0100,605190998.5088062,0,-0.2399998,98.77963
2020-03-06 13:36:40.624 +0100,28913.13716804167,-0.508087158203125,0.7220306396484375,-0.81890869140625,28913.13214404167,-1.30181537022237,-0.6706760928331318,-0.4064807368063447,-1.000164747238159,-0.7221482396125793,0.8493318557739258,0.06892836093902588,0.2534598410129547,-0.1657735109329224,XArbitraryZVertical,-0.3469232424486632,-0.140925661214817,-0.5075397357447946,0.7760074225174222,-0.5708733797073364,0.3953792750835419,-0.7195684313774109,28908.45059475,unknown,2,2020-03-06 13:36:35.936 +0100,605190998.5088062,0,-0.2399998,98.77963
2020-03-06 13:36:40.645 +0100,28913.15726604167,-0.5121917724609375,0.63629150390625,-0.633087158203125,28913.15224204167,-1.295100932190549,-0.680648466478993,-0.426082451530882,-0.3183431625366211,-0.5752353072166443,0.8793110847473145,0.08874213695526123,0.3192270994186401,-0.003742098808288574,XArbitraryZVertical,-0.3557631215165195,-0.1399736096909518,-0.4994934344694023,0.7773971779101164,-0.5730328559875488,0.4133066833019257,-0.7076799869537354,28908.45059475,unknown,2,2020-03-06 13:36:35.936 +0100,605190998.5088062,0,-0.2399998,98.77963
2020-03-06 13:36:40.664 +0100,28913.17736304167,-0.6197052001953125,0.4191741943359375,-0.6784820556640625,28913.17233904167,-1.283631815193307,-0.6874350023766096,-0.4423086453680677,-0.2944867312908173,-0.6073133945465088,0.9237474799156189,-0.008028924465179443,0.06743115186691284,0.04983663558959961,XArbitraryZVertical,-0.362254688637438,-0.1397210161789644,-0.49069637027144,0.7800427262339769,-0.5734908580780029,0.4280270934104919,-0.6984991431236267,28908.45059475,unknown,2,2020-03-06 13:36:35.936 +0100,605190998.5088062,0,-0.2399998,98.77963
2020-03-06 13:36:40.692 +0100,28913.19746104167,-0.5159454345703125,0.538299560546875,-0.6447601318359375,28913.19243704167,-1.269441592660265,-0.6934659173421103,-0.4575245135544551,-0.1250312030315399,-0.6033585071563721,1.026105165481567,-0.009445071220397949,0.001758456230163574,0.02391207218170166,XArbitraryZVertical,-0.3679900206247988,-0.1400495285288288,-0.4810822434358015,0.7832811130720331,-0.5734632015228271,0.4417285919189453,-0.6899389624595642,28908.45059475,unknown,2,2020-03-06 13:36:35.936 +0100,605190998.5088062,0,-0.2399998,98.77963
2020-03-06 13:36:40.704 +0100,28913.21755804167,-0.4780426025390625,0.516845703125,-0.6558685302734375,28913.21253404167,-1.254494014222304,-0.700437251690413,-0.4730734220293084,-0.2176307588815689,-0.8004451394081116,0.9703852534294128,0.09763491153717041,0.08202481269836426,0.01944637298583984,XArbitraryZVertical,-0.3739794855108309,-0.1408692705985762,-0.4708432373122194,0.7865123854712033,-0.5737622976303101,0.4556243121623993,-0.6805903911590576,28908.45059475,unknown,2,2020-03-06 13:36:35.936 +0100,605190998.5088062,0,-0.2399998,98.77963
2020-03-06 13:36:40.724 +0100,28913.23765604167,-0.5548248291015625,0.458984375,-0.58111572265625,28913.23263104167,-1.241201527844775,-0.7121668999862562,-0.4893445150674318,-0.2346108704805374,-0.9538348317146301,0.9889119267463684,0.07224500179290771,0.0303705632686615,0.07169711589813232,XArbitraryZVertical,-0.3813908340290716,-0.143123944619557,-0.4601123369735829,0.7888936529073319,-0.5767843723297119,0.4700474441051483,-0.668113112449646,28908.45059475,unknown,2,2020-03-06 13:36:35.936 +0100,605190998.5088062,0,-0.2399998,98.77963
2020-03-06 13:36:40.745 +0100,28913.25775304167,-0.6129302978515625,0.5871124267578125,-0.6173095703125,28913.25272904167,-1.224853372864119,-0.7235852753645211,-0.5042819381949692,-0.04941633343696594,-0.9576883912086487,1.049285173416138,-0.004681110382080078,0.02776789665222168,0.08182710409164429,XArbitraryZVertical,-0.3879585479348934,-0.1463354718757691,-0.4483865515678234,0.791848259008414,-0.5796617865562439,0.4831788837909698,-0.6561481952667236,28908.45059475,unknown,2,2020-03-06 13:36:35.936 +0100,605190998.5088062,0,-0.2399998,98.77963
2020-03-06 13:36:40.764 +0100,28913.27785104167,-0.6113739013671875,0.5277252197265625,-0.89495849609375,28913.27282604167,-1.20799837197122,-0.7343332654345526,-0.5168404976246667,0.2719122767448425,-0.9993109107017517,0.8834697604179382,-0.04159998893737793,0.08039432764053345,-0.148539662361145,XArbitraryZVertical,-0.3934238485291039,-0.1501839556362463,-0.436977190947248,0.7948040186974489,-0.5825681090354919,0.4941357970237732,-0.6453248858451843,28908.45059475,unknown,2,2020-03-06 13:36:35.936 +0100,605190998.5088062,0,-0.2399998,98.77963
2020-03-06 13:36:40.785 +0100,28913.29794804167,-0.59600830078125,0.3214874267578125,-0.800445556640625,28913.29292404167,-1.18427074183738,-0.7442115099790624,-0.5221721645576812,0.555292546749115,-1.119133830070496,1.002031087875366,-0.02224588394165039,-0.08147573471069336,-0.2386550903320312,XArbitraryZVertical,-0.3955737693428681,-0.1572437054078644,-0.4244445631207041,0.7991511709090884,-0.5871212482452393,0.4987640082836151,-0.6375916004180908,28908.45059475,unknown,2,2020-03-06 13:36:35.936 +0100,605190998.5088062,0,-0.2399998,98.77963
2020-03-06 13:36:40.804 +0100,28913.31804604167,-0.5305938720703125,0.347381591796875,-0.5461883544921875,28913.31302104167,-1.160767422452604,-0.7569004798709131,-0.5308958048102236,0.1549868732690811,-1.288142442703247,1.078458428382874,0.03071463108062744,-0.2249279022216797,-0.0328819751739502,XArbitraryZVertical,-0.3993665127754674,-0.1644829119505153,-0.4106383068772578,0.803011761650422,-0.592153787612915,0.5063060522079468,-0.6269035339355469,28908.45059475,unknown,2,2020-03-06 13:36:35.936 +0100,605190998.5088062,0,-0.2399998,98.77963
2020-03-06 13:36:40.824 +0100,28913.33814304167,-0.5505523681640625,0.617034912109375,-0.56201171875,28913.33311904167,-1.14171244278286,-0.7723248154685061,-0.5466439488852942,-0.07965968549251556,-1.19560432434082,1.142953634262085,0.07125043869018555,-0.0384935736656189,0.09312939643859863,XArbitraryZVertical,-0.406366984503201,-0.170034718279404,-0.3964350040095688,0.8054771035889167,-0.5961143374443054,0.5198231935501099,-0.6119081377983093,28908.45059475,unknown,2,2020-03-06 13:36:35.936 +0100,605190998.5088062,0,-0.2399998,98.77963
2020-03-06 13:36:40.846 +0100,28913.35824104167,-0.643402099609375,0.634307861328125,-0.429534912109375,28913.35321604167,-1.122124438749996,-0.7850609418157515,-0.5603742748489214,0.3939404189586639,-1.024957060813904,0.9666261672973633,0.007990598678588867,0.1470614075660706,0.01057338714599609,XArbitraryZVertical,-0.4119325925791453,-0.1753025442313412,-0.3828812917179527,0.808073223792068,-0.5987571477890015,0.5315032601356506,-0.5991610884666443,28908.45059475,unknown,2,2020-03-06 13:36:35.936 +0100,605190998.5088062,0,-0.2399998,98.77963
2020-03-06 13:36:40.865 +0100,28913.37833804167,-0.70220947265625,0.4822998046875,-0.69451904296875,28913.37331404167,-1.098176455039397,-0.789892491776365,-0.5678209205658362,0.34017613530159,-0.8692570328712463,0.977312445640564,-0.04131150245666504,0.07567465305328369,0.01936697959899902,XArbitraryZVertical,-0.413311877403344,-0.1801220160132635,-0.3705142232139649,0.8120644170763969,-0.5988172292709351,0.5377961993217468,-0.5934587121009827,28908.45059475,unknown,2,2020-03-06 13:36:35.936 +0100,605190998.5088062,0,-0.2399998,98.77963
2020-03-06 13:36:40.885 +0100,28913.39843604167,-0.7829742431640625,0.456298828125,-0.63250732421875,28913.39341104167,-1.077249867101142,-0.7948110810347654,-0.5763002352594905,0.1826401054859161,-0.7332149147987366,0.9531929492950439,-0.1553542017936707,-0.148663341999054,-0.0892481803894043,XArbitraryZVertical,-0.4152755933457971,-0.1841214225626883,-0.3590672690710764,0.8153012622161173,-0.598452627658844,0.5449254512786865,-0.5872909426689148,28908.45059475,unknown,2,2020-03-06 13:36:35.936 +0100,605190998.5088062,0,-0.2399998,98.77963
2020-03-06 13:36:40.905 +0100,28913.41853304167,-0.7930145263671875,0.514617919921875,-0.5106964111328125,28913.41350904167,-1.061028068718349,-0.7985945805173393,-0.5890786522774163,0.0649387538433075,-0.4548968374729156,0.8176100850105286,-0.215149998664856,-0.04608213901519775,0.03353667259216309,XArbitraryZVertical,-0.4189370192026021,-0.1855626874022068,-0.3487515696583908,0.8175760641581216,-0.5956330895423889,0.5555952191352844,-0.5801165103912354,28908.45059475,unknown,2,2020-03-06 13:36:35.936 +0100,605190998.5088062,0,-0.2399998,98.77963
2020-03-06 13:36:40.925 +0100,28913.43863104167,-0.6107025146484375,0.481170654296875,-0.6685333251953125,28913.43360604167,-1.042412772039459,-0.7926941514678284,-0.5955425159720094,0.6434144377708435,-0.06365823745727539,0.704928994178772,-0.1213762760162354,-0.05295562744140625,-0.006416201591491699,XArbitraryZVertical,-0.4184752213748763,-0.1852959056187563,-0.3408880059347738,0.8211815469856463,-0.5896295309066772,0.5609579682350159,-0.5810878276824951,28908.45059475,unknown,2,2020-03-06 13:36:35.936 +0100,605190998.5088062,0,-0.2399998,98.77963
2020-03-06 13:36:40.946 +0100,28913.45872804167,-0.4985198974609375,0.5029449462890625,-0.704345703125,28913.45370404167,-1.016389721804863,-0.7784079454970015,-0.5923759750670815,0.9870471358299255,-0.002254694700241089,0.57738196849823,0.05548179149627686,-0.0745011568069458,-0.1114448308944702,XArbitraryZVertical,-0.4125216025891056,-0.1856584931912595,-0.3338483932401643,0.8269837506634627,-0.5825124382972717,0.5583337545394897,-0.5907136797904968,28908.45059475,unknown,2,2020-03-06 13:36:35.936 +0100,605190998.5088062,0,-0.2399998,98.77963
2020-03-06 13:36:40.967 +0100,28913.47882604167,-0.532470703125,0.480133056640625,-0.7089385986328125,28913.47380104167,-0.9930061748717364,-0.7656258428019347,-0.5846949580638298,0.89183109998703,-0.0013243043795228,0.2764932215213776,0.06145894527435303,-0.05236536264419556,-0.09644168615341187,XArbitraryZVertical,-0.4054432192221803,-0.1871449679592404,-0.3284719558543839,0.8322852064174834,-0.5778694152832031,0.5519450306892395,-0.601185142993927,28908.45059475,unknown,2,2020-03-06 13:36:35.936 +0100,605190998.5088062,0,-0.2399998,98.77963
2020-03-06 13:36:40.986 +0100,28913.49892304167,-0.523345947265625,0.466094970703125,-0.655975341796875,28913.49389904167,-0.9757348064679454,-0.7572699937553344,-0.5751067850446417,0.7699355483055115,-0.1097515746951103,0.1333381682634354,0.04960262775421143,-0.07240581512451172,-0.06953620910644531,XArbitraryZVertical,-0.3989331431477914,-0.1895970447369961,-0.3250537608893564,0.8362088699830463,-0.5764349102973938,0.5439243912696838,-0.6098105907440186,28908.45059475,unknown,2,2020-03-06 13:36:35.936 +0100,605190998.5088062,0,-0.2399998,98.77963
2020-03-06 13:36:41.005 +0100,28913.51902004167,-0.54949951171875,0.4372406005859375,-0.56414794921875,28913.51399604167,-0.9638572442251863,-0.7548453457886738,-0.5668086897061173,0.4935702979564667,-0.3243273794651031,0.05008814483880997,0.04770088195800781,-0.07532697916030884,-0.01343661546707153,XArbitraryZVertical,-0.3943319875276978,-0.1930435370529376,-0.3223675086813548,0.8386391254711802,-0.5780273675918579,0.5369425415992737,-0.6144729256629944,28908.45059475,unknown,2,2020-03-06 13:36:35.936 +0100,605190998.5088062,0,-0.2399998,98.77963
2020-03-06 13:36:41.026 +0100,28913.53911804167,-0.57293701171875,0.4915771484375,-0.4886932373046875,28913.53409404167,-0.957451281299448,-0.7602605483671252,-0.563851011248416,0.05734249204397202,-0.5710655450820923,0.1341433227062225,0.01849663257598877,-0.09861695766448975,0.1135854125022888,XArbitraryZVertical,-0.3934757418027225,-0.1973216866348829,-0.3192566703843625,0.8392354333145855,-0.5824382305145264,0.53444504737854,-0.6124820113182068,28908.45059475,unknown,2,2020-03-06 13:36:35.936 +0100,605190998.5088062,0,-0.2399998,98.77963
2020-03-06 13:36:41.046 +0100,28913.55921504167,-0.581298828125,0.53033447265625,-0.407745361328125,28913.55419104167,-0.9569883332163985,-0.7744956308502493,-0.5673375494427978,-0.2333912253379822,-0.8524149656295776,0.1431494802236557,0.01301670074462891,-0.004407882690429688,0.123931884765625,XArbitraryZVertical,-0.3969824008617792,-0.2025047425377641,-0.3154855126365438,0.8377742219947145,-0.5897908806800842,0.5373886227607727,-0.6027936339378357,28908.45059475,unknown,2,2020-03-06 13:36:35.936 +0100,605190998.5088062,0,-0.2399998,98.77963
2020-03-06 13:36:41.067 +0100,28913.57931304167,-0.646514892578125,0.50408935546875,-0.4149169921875,28913.57428904167,-0.9606547634157961,-0.7946605058049659,-0.5747316668162794,-0.5383436679840088,-0.9275875091552734,0.1844593584537506,-0.02324157953262329,-0.04276376962661743,0.2144185304641724,XArbitraryZVertical,-0.4032437748139257,-0.2083384235747799,-0.3113374430579849,0.8349002938098802,-0.5989733934402466,0.5436095595359802,-0.5879791378974915,28908.45059475,unknown,2,2020-03-06 13:36:35.936 +0100,605190998.5088062,0,-0.2399998,98.77963
2020-03-06 13:36:41.089 +0100,28913.59941004167,-0.5696563720703125,0.6585693359375,-0.6610107421875,28913.59438604167,-0.9673324339786346,-0.8165286949508275,-0.5863179812171317,-0.5277513861656189,-0.9192110300064087,0.2220017164945602,-0.00379103422164917,0.0233079195022583,0.01956784725189209,XArbitraryZVertical,-0.4115517059728075,-0.2131439129464506,-0.3070292742266658,0.8312206596914309,-0.6070560812950134,0.5532976984977722,-0.5703897476196289,28908.45059475,unknown,2,2020-03-06 13:36:35.936 +0100,605190998.5088062,0,-0.2399998,98.77963
2020-03-06 13:36:41.106 +0100,28913.61950804167,-0.5887451171875,0.6189422607421875,-0.633880615234375,28913.61448404167,-0.9695177465810788,-0.8361604876723032,-0.5927134651161932,-0.07099878042936325,-0.861996054649353,0.1267442852258682,0.0458950400352478,0.1010608077049255,-0.08642542362213135,XArbitraryZVertical,-0.4170855047063826,-0.2192028345215294,-0.302385735648563,0.8285846827892698,-0.6154976487159729,0.5586137175559998,-0.5559796094894409,28908.45059475,unknown,2,2020-03-06 13:36:35.936 +0100,605191001.0794098,0,-0.2199993,98.77996
2020-03-06 13:36:41.136 +0100,28913.63960504167,-0.57720947265625,0.5551605224609375,-0.71630859375,28913.63458104167,-0.9674931978447034,-0.851489039878672,-0.5936163471794142,0.1140665858983994,-0.7917947173118591,0.115547850728035,0.03199219703674316,-0.007063806056976318,-0.1142627000808716,XArbitraryZVertical,-0.4194849659544216,-0.2257401652741525,-0.2981293249227169,0.8271594107024401,-0.6235677599906921,0.5593623518943787,-0.5461474657058716,28908.45059475,unknown,2,2020-03-06 13:36:35.936 +0100,605191001.0794098,0,-0.2199993,98.77996
2020-03-06 13:36:41.148 +0100,28913.65970304167,-0.704803466796875,0.5900115966796875,-0.70465087890625,28913.65467804167,-0.9611682980535921,-0.8630535906435606,-0.5930716337696743,0.396173357963562,-0.6609579920768738,0.2164543271064758,0.007934153079986572,0.05155438184738159,-0.2049455642700195,XArbitraryZVertical,-0.4202763179331498,-0.2319890008657833,-0.2932156549995493,0.8267850504137961,-0.6300732493400574,0.5589107275009155,-0.5390978455543518,28908.45059475,unknown,2,2020-03-06 13:36:35.936 +0100,605191001.0794098,0,-0.2199993,98.77996
2020-03-06 13:36:41.166 +0100,28913.67980004167,-0.71588134765625,0.6558074951171875,-0.597381591796875,28913.67477604167,-0.9456680150407895,-0.8647253324159048,-0.5916069480663984,0.6528213024139404,-0.4142218232154846,0.4317080676555634,-0.1127356886863708,0.07602393627166748,-0.1302279233932495,XArbitraryZVertical,-0.4181799307853862,-0.2363014539754891,-0.2867990071316105,0.8288748170926797,-0.6315958499908447,0.5576955676078796,-0.5385743379592896,28908.45059475,unknown,2,2020-03-06 13:36:35.936 +0100,605191001.0794098,0,-0.2199993,98.77996
2020-03-06 13:36:41.187 +0100,28913.69989804167,-0.5901641845703125,0.607086181640625,-0.4626922607421875,28913.69487304167,-0.9233695712393897,-0.8590146575109251,-0.5884199338436921,0.9531597495079041,-0.283594012260437,0.4994252026081085,-0.0221022367477417,0.09167265892028809,0.01065182685852051,XArbitraryZVertical,-0.4135701473764166,-0.2393625878705917,-0.2794814488861138,0.8327997049721297,-0.6298525333404541,0.5550473928451538,-0.5433305501937866,28908.45059475,unknown,2,2020-03-06 13:36:35.936 +0100,605191001.0794098,0,-0.2199993,98.77996
2020-03-06 13:36:41.206 +0100,28913.71999504167,-0.4713134765625,0.572235107421875,-0.4364166259765625,28913.71497104167,-0.8977321012947603,-0.8511846151198957,-0.5828035208395064,0.9354774951934814,-0.4314197599887848,0.4991335272789001,0.09764760732650757,0.02268373966217041,0.08348506689071655,XArbitraryZVertical,-0.4073514501228362,-0.2427323286447605,-0.2717087179168934,0.8374485962335654,-0.6279135942459106,0.5503668189048767,-0.5502915978431702,28908.45059475,unknown,2,2020-03-06 13:36:35.936 +0100,605191001.0794098,0,-0.2199993,98.77996
2020-03-06 13:36:41.226 +0100,28913.74009304167,-0.6175689697265625,0.394256591796875,-0.426177978515625,28913.73506804167,-0.877310669488317,-0.8515992901007619,-0.5807412155150021,0.4182000160217285,-0.7244673371315002,0.4814746677875519,0.1287575364112854,-0.02907520532608032,0.1229117512702942,XArbitraryZVertical,-0.4041437568026466,-0.2475458319276526,-0.2635435922802029,0.8401985796587377,-0.6289942860603333,0.5486437678337097,-0.550777792930603,28908.45059475,unknown,2,2020-03-06 13:36:35.936 +0100,605191001.0794098,0,-0.2199993,98.77996
2020-03-06 13:36:41.247 +0100,28913.76019004167,-0.66278076171875,0.4378204345703125,-0.7452392578125,28913.75516604167,-0.8684644189525885,-0.8620549231831928,-0.5873156200966536,-0.0670991912484169,-0.718122124671936,0.5303776264190674,-0.1202846765518188,-0.1922287344932556,-0.005667686462402344,XArbitraryZVertical,-0.4068260098588882,-0.2521640388827908,-0.2561592209946206,0.8398144803431773,-0.6319664716720581,0.5541284680366516,-0.5418117642402649,28908.45059475,unknown,2,2020-03-06 13:36:35.936 +0100,605191001.0794098,0,-0.2199993,98.77996
2020-03-06 13:36:41.267 +0100,28913.78028804167,-0.712493896484375,0.4735870361328125,-0.527252197265625,28913.77526304167,-0.8619144683676532,-0.8747830455808886,-0.5949828953789609,-0.03096812218427658,-0.8279544115066528,0.425722599029541,-0.02307581901550293,-0.07827925682067871,-0.1570128798484802,XArbitraryZVertical,-0.4104232564114828,-0.2570222477692711,-0.2489846055285661,0.8387484681253641,-0.6355322003364563,0.560494601726532,-0.53098464012146,28908.45059475,unknown,2,2020-03-06 13:36:35.936 +0100,605191001.0794098,0,-0.2199993,98.77996
2020-03-06 13:36:41.287 +0100,28913.80038504167,-0.7167510986328125,0.4918975830078125,-0.4022216796875,28913.79536104167,-0.8591293493457072,-0.8885823927207587,-0.6026297880808634,-0.2482728660106659,-0.7108943462371826,0.3419087827205658,-0.07753497362136841,-0.08004838228225708,0.09510600566864014,XArbitraryZVertical,-0.4145621107672439,-0.2615623488249975,-0.2431294865246597,0.8370253784502394,-0.6394531726837158,0.5668109655380249,-0.5194467902183533,28908.45059475,unknown,2,2020-03-06 13:36:35.936 +0100,605191001.0794098,0,-0.2199993,98.77996
2020-03-06 13:36:41.307 +0100,28913.82048304167,-0.62786865234375,0.595977783203125,-0.596588134765625,28913.81545804167,-0.8604606949394467,-0.9022575472376645,-0.612317331423722,-0.3276122808456421,-0.5702064633369446,0.3624036312103271,-0.08041548728942871,-0.06857824325561523,-0.002105712890625,XArbitraryZVertical,-0.4199098270405582,-0.2646933249523304,-0.2384698699874273,0.8347126416038989,-0.6421574354171753,0.5747653245925903,-0.5072263479232788,28908.45059475,unknown,2,2020-03-06 13:36:35.936 +0100,605191001.0794098,0,-0.2199993,98.77996
2020-03-06 13:36:41.327 +0100,28913.840579,-0.708343505859375,0.5962066650390625,-0.499969482421875,28913.835555,-0.8594171620824953,-0.9134653697047483,-0.6199813508800116,-0.08530482649803162,-0.505043625831604,0.2948448061943054,0.0150148868560791,0.09016060829162598,-0.04780715703964233,XArbitraryZVertical,-0.423864844141523,-0.2677553550551575,-0.2337797550215185,0.8330621832657423,-0.6442957520484924,0.5810199975967407,-0.4972913265228271,28908.45059475,unknown,2,2020-03-06 13:36:35.936 +0100,605191001.0794098,0,-0.2199993,98.77996
2020-03-06 13:36:41.347 +0100,28913.860677,-0.590606689453125,0.5860443115234375,-0.5355072021484375,28913.855652,-0.8561625787275304,-0.9187868386142697,-0.6257682070964445,-0.169653981924057,-0.3947705328464508,0.305524080991745,-0.005310237407684326,-0.0222054123878479,-0.06850409507751465,XArbitraryZVertical,-0.4261281839975589,-0.2692788998145753,-0.2298554242187134,0.8325083226147214,-0.6442496180534363,0.5857200622558594,-0.4918072819709778,28908.45059475,unknown,2,2020-03-06 13:36:35.936 +0100,605191001.0794098,0,-0.2199993,98.77996
2020-03-06 13:36:41.367 +0100,28913.880774,-0.6401519775390625,0.631561279296875,-0.4063262939453125,28913.87575,-0.8558582172507646,-0.9270143349470275,-0.6326248853259827,-0.2462394237518311,-0.3965779840946198,0.2746872007846832,0.02319681644439697,0.01039803028106689,0.05725610256195068,XArbitraryZVertical,-0.4294849627332651,-0.2711246600090086,-0.2262540778160729,0.8311697582499638,-0.6450467109680176,0.5912637114524841,-0.4840681850910187,28908.45059475,unknown,2,2020-03-06 13:36:35.936 +0100,605191001.0794098,0,-0.2199993,98.77996
2020-03-06 13:36:41.387 +0100,28913.900872,-0.6620635986328125,0.6098480224609375,-0.4535369873046875,28913.895847,-0.8580102117459724,-0.9368594077005553,-0.6401384177087441,-0.377027690410614,-0.4500414729118347,0.2780531644821167,0.031505286693573,0.02028542757034302,0.05337965488433838,XArbitraryZVertical,-0.4335639380720099,-0.2729424454945544,-0.2231287363090418,0.8292999055599831,-0.6461834311485291,0.5973064303398132,-0.4750494658946991,28908.45059475,unknown,2,2020-03-06 13:36:35.936 +0100,605191001.0794098,0,-0.2199993,98.77996
2020-03-06 13:36:41.407 +0100,28913.920969,-0.6996002197265625,0.558837890625,-0.6017608642578125,28913.915945,-0.8618958442262168,-0.947020779197962,-0.6491882358730195,-0.2885910868644714,-0.301450252532959,0.2843647301197052,-0.06430649757385254,-0.03095442056655884,-0.07116395235061646,XArbitraryZVertical,-0.4384269865715283,-0.2741177939160768,-0.22022000778071,0.8271302198227085,-0.6465629935264587,0.6045399904251099,-0.4652824103832245,28908.45059475,unknown,2,2020-03-06 13:36:35.936 +0100,605191001.0794098,0,-0.2199993,98.77996
2020-03-06 13:36:41.427 +0100,28913.941066,-0.6328125,0.5637664794921875,-0.5502777099609375,28913.936042,-0.8623348952242723,-0.9514672948051821,-0.6556269512265642,-0.1791616231203079,-0.1539547443389893,0.1866157352924347,-0.02096277475357056,-0.03324794769287109,-0.1320530772209167,XArbitraryZVertical,-0.4412414876444899,-0.2742974337905399,-0.2177740142046465,0.8262210749097758,-0.6454424858093262,0.6096563339233398,-0.4601337313652039,28908.45059475,unknown,2,2020-03-06 13:36:35.936 +0100,605191001.0794098,0,-0.2199993,98.77996
2020-03-06 13:36:41.447 +0100,28913.961164,-0.64410400390625,0.6192169189453125,-0.49725341796875,28913.95614,-0.8633478682417182,-0.9542345124263647,-0.6594491926523378,-0.1786524653434753,-0.0668705552816391,0.07309915870428085,0.03003793954849243,-0.02340996265411377,-0.03251516819000244,XArbitraryZVertical,-0.4430226139219318,-0.2742870488442676,-0.2165977976118755,0.8255803923572654,-0.6448074579238892,0.6126816272735596,-0.4569951593875885,28908.45059475,unknown,2,2020-03-06 13:36:35.936 +0100,605191001.0794098,0,-0.2199993,98.77996
2020-03-06 13:36:41.468 +0100,28913.981261,-0.6381988525390625,0.609588623046875,-0.534423828125,28913.976237,-0.8673544746768055,-0.9575799453707451,-0.6619000555531089,-0.1950438916683197,-0.0001989863812923431,-0.03328697383403778,-0.002778470516204834,-0.0154421329498291,-0.04509234428405762,XArbitraryZVertical,-0.4447923242408892,-0.2741803331688952,-0.2168761153244523,0.8245905612471055,-0.6451026797294617,0.6146167516708374,-0.4539698660373688,28908.45059475,unknown,2,2020-03-06 13:36:35.936 +0100,605191001.0794098,0,-0.2199993,98.77996
2020-03-06 13:36:41.488 +0100,28914.001359,-0.727294921875,0.5459442138671875,-0.4664154052734375,28913.996335,-0.8720232431663265,-0.9604447866604754,-0.663199951746172,-0.2733893692493439,0.0576852448284626,0.01357996929436922,-0.02998316287994385,-0.05801659822463989,-0.009223043918609619,XArbitraryZVertical,-0.4461969423985028,-0.2740026998957998,-0.217825623582004,0.8236399599735446,-0.6457453966140747,0.6156416535377502,-0.451661616563797,28908.45059475,unknown,2,2020-03-06 13:36:35.936 +0100,605191001.0794098,0,-0.2199993,98.77996
2020-03-06 13:36:41.508 +0100,28914.021456,-0.65106201171875,0.580078125,-0.5028839111328125,28914.016432,-0.881037227735851,-0.9643570429585325,-0.6688192712454487,-0.5864108204841614,0.07863438129425049,0.05654195323586464,-0.06310200691223145,-0.0605277419090271,-0.06078970432281494,XArbitraryZVertical,-0.4498062021655229,-0.2722092198672422,-0.219199166835824,0.8219052321286789,-0.6446546316146851,0.6200600862503052,-0.4471530318260193,28908.45059475,unknown,2,2020-03-06 13:36:35.936 +0100,605191001.0794098,0,-0.2199993,98.77996
2020-03-06 13:36:41.528 +0100,28914.041554,-0.639373779296875,0.61749267578125,-0.4667510986328125,28914.036529,-0.8937983263570566,-0.9700287817780974,-0.6764392091183371,-0.7179248929023743,0.09173186868429184,-0.003409267403185368,0.007574915885925293,-0.007100820541381836,-0.05862253904342651,XArbitraryZVertical,-0.4547844638927429,-0.2697557268336561,-0.2211646700272773,0.819444375877728,-0.64326411485672,0.6260202527046204,-0.4408058822154999,28908.45059475,unknown,2,2020-03-06 13:36:35.936 +0100,605191001.0794098,0,-0.2199993,98.77996
2020-03-06 13:36:41.548 +0100,28914.061651,-0.62054443359375,0.62518310546875,-0.443145751953125,28914.056627,-0.9105783564159514,-0.9787347302018409,-0.6860083195037951,-0.9322479963302612,0.04149414598941803,0.08158504962921143,0.01319319009780884,-0.004920899868011475,-0.001424849033355713,XArbitraryZVertical,-0.4612644961219832,-0.2670618643190016,-0.2235161104923726,0.8160597837766614,-0.6420769691467285,0.6334535479545593,-0.4318260550498962,28908.45059475,unknown,2,2020-03-06 13:36:35.936 +0100,605191001.0794098,0,-0.2199993,98.77996
2020-03-06 13:36:41.568 +0100,28914.081749,-0.66485595703125,0.705780029296875,-0.412109375,28914.076724,-0.9275872370546951,-0.9904366110583752,-0.6984656660912679,-0.8795319795608521,-0.06214779615402222,0.2849644124507904,0.007402896881103516,-0.02313196659088135,0.007043063640594482,XArbitraryZVertical,-0.4690209577782281,-0.2646840194048387,-0.2244100903626528,0.8121587350023529,-0.6404369473457336,0.6430433988571167,-0.4199234247207642,28908.45059475,unknown,2,2020-03-06 13:36:35.936 +0100,605191001.0794098,0,-0.2199993,98.77996
2020-03-06 13:36:41.588 +0100,28914.101846,-0.6254119873046875,0.750091552734375,-0.50994873046875,28914.096822,-0.9420023590010324,-1.000505679090368,-0.7129076069767546,-0.6916607618331909,-0.01128047332167625,0.3227581977844238,-0.03954410552978516,0.09429353475570679,-0.1005678772926331,XArbitraryZVertical,-0.4768250069513312,-0.2616093165359613,-0.2239943158278495,0.8087181034327053,-0.6367485523223877,0.6540360450744629,-0.4083969593048096,28908.45059475,unknown,2,2020-03-06 13:36:35.936 +0100,605191001.0794098,0,-0.2199993,98.77996
2020-03-06 13:36:41.608 +0100,28914.121944,-0.5783538818359375,0.743408203125,-0.4131927490234375,28914.116919,-0.9482082749990236,-1.004571843912049,-0.7244580518228182,-0.371006578207016,-0.02786721847951412,0.4317196607589722,0.03175836801528931,0.09034556150436401,-0.07116794586181641,XArbitraryZVertical,-0.4818635321190092,-0.2587374684867784,-0.222402746570909,0.8070931838791257,-0.6319860219955444,0.6627296805381775,-0.4017249047756195,28908.45059475,unknown,2,2020-03-06 13:36:35.936 +0100,605191001.0794098,0,-0.2199993,98.77996
2020-03-06 13:36:41.628 +0100,28914.142041,-0.625152587890625,0.7203521728515625,-0.3201751708984375,28914.137017,-0.9500420448907739,-1.00670783373197,-0.7373294552264423,-0.4504190683364868,-0.05385477095842361,0.5495883822441101,0.04920363426208496,0.09858423471450806,0.06470274925231934,XArbitraryZVertical,-0.486513452452097,-0.2557625165344105,-0.2191278975632067,0.8061470831599145,-0.6255817413330078,0.672313392162323,-0.3957803845405579,28908.45059475,unknown,2,2020-03-06 13:36:35.936 +0100,605191001.0794098,0,-0.2199993,98.77996
2020-03-06 13:36:41.649 +0100,28914.162139,-0.6007080078125,0.6966552734375,-0.410552978515625,28914.157114,-0.9515090649115213,-1.008427915447891,-0.7517081821628137,-0.4450663924217224,-0.04137067124247551,0.6442086696624756,-0.0102238655090332,-0.001940250396728516,-0.01313239336013794,XArbitraryZVertical,-0.4915234957357906,-0.2522900844534526,-0.2153757469236251,0.8052127318901909,-0.6180188655853271,0.6828876137733459,-0.3895087242126465,28908.45059475,unknown,2,2020-03-06 13:36:35.936 +0100,605191001.0794098,0,-0.2199993,98.77996
2020-03-06 13:36:41.669 +0100,28914.182236,-0.6528167724609375,0.6522979736328125,-0.3961334228515625,28914.177212,-0.9519546894842638,-1.009031045898077,-0.7672111733968368,-0.3906344175338745,0.03058187291026115,0.6239163279533386,-0.02418017387390137,-0.009413957595825195,0.02054291963577271,XArbitraryZVertical,-0.4966100595238006,-0.248301102832995,-0.2111612036110741,0.8044475840523023,-0.609220027923584,0.6941304206848145,-0.3834500312805176,28908.45059475,unknown,2,2020-03-06 13:36:35.936 +0100,605191001.0794098,0,-0.2199993,98.77996
2020-03-06 13:36:41.696 +0100,28914.202334,-0.589752197265625,0.652099609375,-0.3719329833984375,28914.197309,-0.9503599400376019,-1.008151534814566,-0.7809748154136414,-0.1804649382829666,-0.03314040973782539,0.59385746717453,-0.01832795143127441,-0.03169137239456177,-0.01119911670684814,XArbitraryZVertical,-0.5007071745232754,-0.2446746435006386,-0.2069603930230194,0.8041107219447744,-0.6007441282272339,0.7039721012115479,-0.3788532912731171,28908.45059475,unknown,2,2020-03-06 13:36:35.936 +0100,605191001.0794098,0,-0.2199993,98.77996
2020-03-06 13:36:41.709 +0100,28914.222431,-0.5522918701171875,0.7123565673828125,-0.201171875,28914.217407,-0.9449810456820704,-1.006101757251208,-0.7935749764921044,-0.2488777637481689,-0.1448361575603485,0.6208206415176392,0.03918004035949707,-0.001750349998474121,0.1070502996444702,XArbitraryZVertical,-0.5038459631724186,-0.2418383708353048,-0.2018482823174441,0.8043076028638099,-0.5924257636070251,0.7128649353981018,-0.3753069043159485,28908.45059475,unknown,2,2020-03-06 13:36:35.936 +0100,605191001.0794098,0,-0.2199993,98.77996
2020-03-06 13:36:41.729 +0100,28914.242529,-0.5680694580078125,0.64013671875,-0.3005218505859375,28914.237504,-0.945626005463303,-1.009957594309284,-0.8073459736268708,-0.5348693132400513,-0.2480339854955673,0.5175877809524536,0.04597127437591553,-0.04973083734512329,0.1495708227157593,XArbitraryZVertical,-0.5086625703082343,-0.2395430602933372,-0.1973352030041813,0.8030817315443268,-0.5854993462562561,0.7224546670913696,-0.3677630126476288,28908.45059475,unknown,2,2020-03-06 13:36:35.936 +0100,605191001.0794098,0,-0.2199993,98.77996
2020-03-06 13:36:41.749 +0100,28914.262626,-0.61785888671875,0.793670654296875,-0.41534423828125,28914.257602,-0.9527316802056878,-1.020388938274364,-0.8223209171596882,-0.621151864528656,-0.2863093912601471,0.5536628365516663,-0.00916290283203125,-0.06375706195831299,-0.03741109371185303,XArbitraryZVertical,-0.5152144278302534,-0.237877594205616,-0.1933564134196254,0.8003634121499654,-0.58001708984375,0.7327272295951843,-0.3559366762638092,28908.45059475,unknown,2,2020-03-06 13:36:35.936 +0100,605191001.0794098,0,-0.2199993,98.77996
2020-03-06 13:36:41.769 +0100,28914.282724,-0.6170501708984375,0.8976287841796875,-0.4049835205078125,28914.277699,-0.9602467307663692,-1.031036942174436,-0.8397183822305436,-0.6006693840026855,-0.2023104429244995,0.6556984186172485,-0.07300847768783569,0.1835788488388062,-0.06395924091339111,XArbitraryZVertical,-0.5224845645091503,-0.2354603319704191,-0.1887210058970307,0.79746637418115,-0.5727510452270508,0.744455099105835,-0.3431366384029388,28908.45059475,unknown,2,2020-03-06 13:36:35.936 +0100,605191001.0794098,0,-0.2199993,98.77996
2020-03-06 13:36:41.789 +0100,28914.302821,-0.5738525390625,0.732269287109375,-0.3137359619140625,28914.297797,-0.9601386748793668,-1.032786450042179,-0.8557217605840092,-0.3100101351737976,0.004650911316275597,0.6905842423439026,-0.01253747940063477,0.06472873687744141,0.02788883447647095,XArbitraryZVertical,-0.5275118386332605,-0.2318156087460015,-0.1837049975073605,0.7963951349759951,-0.5630467534065247,0.7550443410873413,-0.3359855711460114,28908.45059475,unknown,2,2020-03-06 13:36:35.936 +0100,605191001.0794098,0,-0.2199993,98.77996
2020-03-06 13:36:41.809 +0100,28914.322918,-0.4944915771484375,0.731231689453125,-0.3582611083984375,28914.317894,-0.957264705375148,-1.03004679386567,-0.8702289645159192,-0.2699967324733734,0.02068543434143066,0.687091588973999,0.02523195743560791,-0.06680411100387573,-0.03514266014099121,XArbitraryZVertical,-0.5313291151330845,-0.2275146758390095,-0.1791858097028001,0.7961274265900532,-0.5526746511459351,0.7644765377044678,-0.3318528831005096,28908.45059475,unknown,2,2020-03-06 13:36:35.936 +0100,605191001.0794098,0,-0.2199993,98.77996
2020-03-06 13:36:41.829 +0100,28914.343016,-0.5955352783203125,0.8275299072265625,-0.3440399169921875,28914.337992,-0.9534794556111238,-1.026007847446991,-0.8856228018304408,-0.3714256584644318,0.07604482024908066,0.7164174318313599,-0.01062583923339844,0.01767796277999878,-0.005954742431640625,XArbitraryZVertical,-0.535194378667307,-0.2226989245693298,-0.1744044422682586,0.7959618489075664,-0.5412002205848694,0.7743092775344849,-0.3279443383216858,28908.45059475,unknown,2,2020-03-06 13:36:35.936 +0100,605191001.0794098,0,-0.2199993,98.77996
2020-03-06 13:36:41.850 +0100,28914.363113,-0.583770751953125,0.782470703125,-0.4287261962890625,28914.358089,-0.9500064430507851,-1.020592344594218,-0.9006618524650175,-0.1397570967674255,0.1815235614776611,0.6955271363258362,-0.0546993613243103,0.006692767143249512,-0.0517723560333252,XArbitraryZVertical,-0.5388738511197573,-0.2173538896269193,-0.1702275871372506,0.795861041233864,-0.5294293761253357,0.7837381362915039,-0.3247445225715637,28908.45059475,unknown,2,2020-03-06 13:36:35.936 +0100,605191001.0794098,0,-0.2199993,98.77996
2020-03-06 13:36:41.870 +0100,28914.383211,-0.5276641845703125,0.7740020751953125,-0.4817352294921875,28914.378187,-0.9390358035921034,-1.006227267962924,-0.9116787683227768,0.1721942573785782,0.3891593217849731,0.5492767691612244,-0.04020988941192627,0.03123962879180908,-0.1284611225128174,XArbitraryZVertical,-0.5398117247815883,-0.2115779600099717,-0.1666316981308519,0.7975411737208394,-0.5173837542533875,0.7905329465866089,-0.3276761472225189,28908.45059475,unknown,2,2020-03-06 13:36:35.936 +0100,605191001.0794098,0,-0.2199993,98.77996
2020-03-06 13:36:41.890 +0100,28914.403308,-0.486480712890625,0.6934051513671875,-0.3978424072265625,28914.398284,-0.9196710071943639,-0.9812919828454829,-0.9160147421198245,0.4127894937992096,0.5139405727386475,0.4818696081638336,-0.007876336574554443,-0.08449119329452515,-0.1395753622055054,XArbitraryZVertical,-0.5370527754904555,-0.2056494721362024,-0.1643977654859382,0.8014087493518565,-0.5061991214752197,0.7931809425354004,-0.3385652303695679,28908.45059475,unknown,2,2020-03-06 13:36:35.936 +0100,605191001.0794098,0,-0.2199993,98.77996
2020-03-06 13:36:41.910 +0100,28914.423406,-0.45599365234375,0.51116943359375,-0.451202392578125,28914.418382,-0.901521436175282,-0.9528124231083857,-0.9171891933061753,0.3019932210445404,0.8795281052589417,0.2483370006084442,0.03625130653381348,-0.1584023237228394,-0.003569900989532471,XArbitraryZVertical,-0.5332423152670656,-0.1987498220355014,-0.1644049371968026,0.8056811279496237,-0.4955933094024658,0.7938956618309021,-0.3523022830486298,28908.45059475,unknown,2,2020-03-06 13:36:35.936 +0100,605191001.0794098,0,-0.2199993,98.77996
2020-03-06 13:36:41.930 +0100,28914.443503,-0.7073822021484375,0.762725830078125,-0.82781982421875,28914.438479,-0.8964972856158964,-0.9314270904369527,-0.9176685694510828,-0.1135662347078323,0.7444037199020386,-0.02591481059789658,-0.1087554097175598,-0.3203299045562744,-0.3127226829528809,XArbitraryZVertical,-0.5311270605824607,-0.1913320189074864,-0.1679394470535561,0.8081412924051986,-0.4876409769058228,0.7941870093345642,-0.3625922203063965,28908.45059475,unknown,2,2020-03-06 13:36:35.936 +0100,605191001.0794098,0,-0.2199993,98.77996
2020-03-06 13:36:41.950 +0100,28914.463601,-0.8136138916015625,1.407806396484375,-1.2451171875,28914.458576,-0.8986732148494421,-0.9171720814066193,-0.9139744947348255,0.6572263836860657,0.9498270153999329,-0.4311048984527588,-0.2140188813209534,0.3830769658088684,-0.6040300130844116,XArbitraryZVertical,-0.5289370228077266,-0.185961430997421,-0.1735800161456056,0.8096381669680051,-0.4847487509250641,0.7919368147850037,-0.3712879419326782,28908.45059475,unknown,2,2020-03-06 13:36:35.936 +0100,605191001.0794098,0,-0.2199993,98.77996
2020-03-06 13:36:41.970 +0100,28914.483698,-1.395523071289062,1.268844604492188,-1.715423583984375,28914.478674,-0.8705756808018155,-0.8722744345884815,-0.8751537564032,3.24965500831604,1.356634497642517,-1.607162117958069,-0.6313266754150391,0.6593398451805115,-1.124258995056152,XArbitraryZVertical,-0.509611371615433,-0.1850026630878454,-0.1838733937421378,0.8199151668376309,-0.4907809197902679,0.7676420211791992,-0.4121405184268951,28908.45059475,unknown,2,2020-03-06 13:36:35.936 +0100,605191001.0794098,0,-0.2199993,98.77996
2020-03-06 13:36:41.990 +0100,28914.503796,-0.999786376953125,0.6613006591796875,-1.7208251953125,28914.498771,-0.8176186727062816,-0.8040088821507002,-0.7927097521855644,4.560122489929199,1.39661431312561,-1.770360112190247,-0.799380898475647,0.2488419413566589,-1.505584001541138,XArbitraryZVertical,-0.4694803769253912,-0.1899578503900731,-0.1988622098588317,0.8390220582469867,-0.505481481552124,0.7122579216957092,-0.4870083928108215,28908.45059475,unknown,2,2020-03-06 13:36:35.936 +0100,605191001.0794098,0,-0.2199993,98.77996
2020-03-06 13:36:42.011 +0100,28914.523893,-1.017654418945312,1.081008911132812,-1.288925170898438,28914.518869,-0.7605205774105408,-0.7388639016719427,-0.6990819495526414,4.600183010101318,1.290616035461426,-2.089849710464478,-0.5239102244377136,0.004076540470123291,-0.4771894216537476,XArbitraryZVertical,-0.4224657811125664,-0.1964827397620356,-0.2103643612311871,0.8594556253988721,-0.5154798626899719,0.6435152292251587,-0.5658344030380249,28908.45059475,unknown,2,2020-03-06 13:36:35.936 +0100,605191001.0794098,0,-0.2199993,98.77996
2020-03-06 13:36:42.030 +0100,28914.543991,-0.7876434326171875,2.760482788085938,-1.290191650390625,28914.538966,-0.7519476015917742,-0.7109934542256885,-0.6025664233757506,3.501919031143188,1.015934944152832,-4.014813899993896,-0.2134199142456055,1.330725312232971,-0.6163423657417297,XArbitraryZVertical,-0.3808021247414085,-0.2070160283396681,-0.2326454390036533,0.8706377914866039,-0.5376557111740112,0.5667587518692017,-0.6242682337760925,28908.45059475,unknown,2,2020-03-06 13:36:35.936 +0100,605191001.0794098,0,-0.2199993,98.77996
2020-03-06 13:36:42.051 +0100,28914.564088,-0.8678436279296875,0.975738525390625,-1.8685302734375,28914.559064,-0.7884095809207866,-0.7113759641541105,-0.4972625074276347,2.572977542877197,0.6088569760322571,-4.609084606170654,-0.232810378074646,1.707952380180359,-1.235801219940186,XArbitraryZVertical,-0.3426180598093749,-0.2230433839748843,-0.2698423554528065,0.871808208268451,-0.5738078355789185,0.4770213663578033,-0.6657290458679199,28908.45059475,unknown,2,2020-03-06 13:36:35.936 +0100,605191001.0794098,0,-0.2199993,98.77996
2020-03-06 13:36:42.071 +0100,28914.584186,-1.638885498046875,0.0289154052734375,-1.059921264648438,28914.579161,-0.8653263234936138,-0.7536484720940355,-0.4422749792111534,-3.885075569152832,-1.893290400505066,-4.492323875427246,-0.5264612436294556,-0.1115996241569519,-0.9109838008880615,XArbitraryZVertical,-0.3356855097260001,-0.2404126834244733,-0.3071048667147643,0.8574401423431594,-0.6184602975845337,0.4279966652393341,-0.6590339541435242,28908.45059475,unknown,2,2020-03-06 13:36:35.936 +0100,605191001.0794098,0,-0.2199993,98.77996
2020-03-06 13:36:42.091 +0100,28914.604283,-2.558486938476562,1.582260131835938,-1.278060913085938,28914.599259,-1.056538653316043,-0.8986565863128667,-0.4734030049554401,-9.009036064147949,-3.401891946792603,-4.822718143463135,-1.338106274604797,0.1708892583847046,-0.2146556377410889,XArbitraryZVertical,-0.3952576950922202,-0.2582248150358599,-0.3533772848555686,0.807598744418103,-0.6964342594146729,0.4559176564216614,-0.5541825890541077,28908.45059475,unknown,2,2020-03-06 13:36:35.936 +0100,605191001.0794098,0,-0.2199993,98.77996
2020-03-06 13:36:42.111 +0100,28914.624381,-2.187576293945312,2.177780151367188,-1.286041259765625,28914.619356,-1.200571323073275,-1.011184677082489,-0.4321767462203157,3.103718519210815,-0.7809746861457825,-5.506886959075928,-2.128021001815796,1.999141454696655,-1.205520868301392,XArbitraryZVertical,-0.4220129903840602,-0.2843958548368291,-0.3970217160547139,0.7638047599898489,-0.7695424556732178,0.4188483953475952,-0.4820480644702911,28908.45059475,unknown,2,2020-03-06 13:36:35.936 +0100,605191001.0794098,0,-0.2199993,98.77996
2020-03-06 13:36:42.131 +0100,28914.644478,-0.6698760986328125,0.57305908203125,-0.288848876953125,28914.639454,-1.107002673060391,-0.9786479125730605,-0.2551323103624743,11.58790969848633,-0.04468031600117683,-4.626226425170898,-0.3697342872619629,1.105738639831543,-0.3034215569496155,XArbitraryZVertical,-0.3405971207073773,-0.3375718246950909,-0.4093431137508326,0.7761939397488967,-0.802884578704834,0.2523734271526337,-0.5400777459144592,28908.45059475,unknown,2,2020-03-06 13:36:35.936 +0100,605191001.0794098,0,-0.2199993,98.77996
2020-03-06 13:36:42.151 +0100,28914.664576,-0.703460693359375,-1.288345336914062,0.972991943359375,28914.659551,-0.9688914666753832,-0.9714816158943163,-0.06982979330661114,9.403253555297852,-1.286930203437805,-2.901329040527344,0.2920973896980286,-0.5187925100326538,1.07543408870697,XArbitraryZVertical,-0.2446121365676858,-0.3985146071497748,-0.3971751140001404,0.7896853176210747,-0.8237099647521973,0.06977305561304092,-0.5627020001411438,28908.45059475,unknown,2,2020-03-06 13:36:35.936 +0100,605191001.0794098,0,-0.2199993,98.77996
2020-03-06 13:36:42.180 +0100,28914.684673,-1.01031494140625,-0.6277923583984375,1.111923217773438,28914.679649,-0.8922296108083717,-0.9966465594315158,0.05593332305980957,3.661770820617676,-1.029828786849976,-3.505389928817749,-0.07249826192855835,-1.051137089729309,1.763896942138672,XArbitraryZVertical,-0.1839805760235537,-0.441605348998773,-0.3909002388801647,0.7863414616073268,-0.8383412957191467,-0.05590416118502617,-0.5422717332839966,28908.45059475,unknown,2,2020-03-06 13:36:35.936 +0100,605191001.0794098,0,-0.2199993,98.77996
2020-03-06 13:36:42.195 +0100,28914.704771,-1.002471923828125,0.0259857177734375,0.358551025390625,28914.699746,-0.8867373435385546,-1.005694401051765,0.1318131797070228,1.782493591308594,0.1418141424655914,-2.053080797195435,-0.1912006139755249,-0.2173859775066376,1.280283451080322,XArbitraryZVertical,-0.1541615834347069,-0.4591360872332188,-0.4037365571441527,0.7761604170895227,-0.8372078537940979,-0.1314318031072617,-0.5308564901351929,28908.45059475,unknown,2,2020-03-06 13:36:35.936 +0100,605191001.0794098,0,-0.2199993,98.77996
2020-03-06 13:36:42.211 +0100,28914.724868,-0.64013671875,0.6136474609375,-0.2923583984375,28914.719844,-0.8613743518216969,-0.9964391100503013,0.1784035850542473,3.144057750701904,1.154505491256714,-0.9996380805969238,-0.06017827987670898,0.6216700077056885,0.4971880912780762,XArbitraryZVertical,-0.1276042473126822,-0.4651677812309314,-0.4039664679853778,0.7772689867342498,-0.8262166380882263,-0.177458718419075,-0.5346722006797791,28908.45059475,unknown,2,2020-03-06 13:36:35.936 +0100,605191001.0794098,0,-0.2199993,98.77996
2020-03-06 13:36:42.231 +0100,28914.744966,-0.0999298095703125,0.1740264892578125,-0.063873291015625,28914.739941,-0.7999323188113415,-0.9828024756658613,0.2425585175327054,5.239658355712891,1.396222472190857,-0.7775059342384338,0.482185959815979,0.7187754511833191,0.3160192966461182,XArbitraryZVertical,-0.08413942436012999,-0.4729619111789179,-0.3933714758923377,0.7838918564802416,-0.8076980710029602,-0.2401870340108871,-0.5384551882743835,28908.45059475,unknown,2,2020-03-06 13:36:35.936 +0100,605191001.0794098,0,-0.2199993,98.77996
2020-03-06 13:36:42.252 +0100,28914.765063,-0.097808837890625,-0.260345458984375,0.38916015625,28914.760039,-0.7049835242042333,-0.9772909221047188,0.3063555871291584,5.318003177642822,1.896303772926331,0.4347925782203674,0.7428747415542603,0.1954108476638794,0.746982216835022,XArbitraryZVertical,-0.03372768404119882,-0.4819204730257355,-0.3684864605983685,0.7942498686139917,-0.7903869152069092,-0.3015859127044678,-0.533230185508728,28908.45059475,unknown,2,2020-03-06 13:36:35.936 +0100,605191001.0794098,0,-0.2199993,98.77996
2020-03-06 13:36:42.272 +0100,28914.785161,0.17108154296875,-0.002288818359375,0.3593292236328125,28914.780136,-0.6283335629985758,-0.9560210934316141,0.3480230142456036,2.750466108322144,2.577559471130371,0.02045824937522411,0.7268408536911011,0.114777684211731,1.012280821800232,XArbitraryZVertical,0.006195443176388309,-0.4783966335793553,-0.3459885163153189,0.8070874739103108,-0.7679287791252136,-0.3410400152206421,-0.5421965718269348,28908.45059475,unknown,2,2020-03-06 13:36:35.936 +0100,605191001.0794098,0,-0.2199993,98.77996
2020-03-06 13:36:42.292 +0100,28914.805258,0.7119598388671875,0.5052490234375,-0.2481231689453125,28914.800234,-0.6048110521598216,-0.9109500614190714,0.3703376869033395,0.8440430164337158,2.699581384658813,-0.3420761823654175,1.185791611671448,0.6558701992034912,0.6383536458015442,XArbitraryZVertical,0.02907276922617567,-0.4619913855243468,-0.340197498979814,0.8185257120469738,-0.7365226745605469,-0.361930251121521,-0.5714374780654907,28908.45059475,unknown,2,2020-03-06 13:36:35.936 +0100,605191001.0794098,0,-0.2199993,98.77996
2020-03-06 13:36:42.312 +0100,28914.825356,0.908233642578125,0.4489593505859375,-0.46539306640625,28914.820331,-0.5781173539964416,-0.8649762618496883,0.3929316460378606,3.068652629852295,2.827205896377563,0.2372018992900848,1.569782495498657,0.9298592209815979,0.2269614934921265,XArbitraryZVertical,0.05270320587442997,-0.4445337296919882,-0.3322474615716573,0.8301950085288802,-0.7030783295631409,-0.3828982710838318,-0.5992242693901062,28908.45059475,unknown,2,2020-03-06 13:36:35.936 +0100,605191001.0794098,0,-0.2199993,98.77996
2020-03-06 13:36:42.332 +0100,28914.845454375,0.52886962890625,0.1776275634765625,-0.0455322265625,28914.840430375,-0.4973591996408092,-0.8422568251072322,0.4514368668415258,5.799242496490479,2.784079074859619,-0.07582111656665802,1.438189506530762,0.7773628234863281,0.3398882150650024,XArbitraryZVertical,0.09990795920977526,-0.4364363413751907,-0.3075979290963353,0.8395981610786649,-0.6713993549346924,-0.4362589120864868,-0.599083423614502,28908.45059475,unknown,2,2020-03-06 13:36:35.936 +0100,605191001.0794098,0,-0.2199993,98.77996
2020-03-06 13:36:42.352 +0100,28914.865551375,0.30059814453125,-0.391143798828125,0.0352935791015625,28914.860527375,-0.4171007974620198,-0.8235101822015124,0.5323412967783183,4.447301387786865,2.662274837493896,-1.163635969161987,0.9343889951705933,0.2712775468826294,0.9307153224945068,XArbitraryZVertical,0.1558868796419199,-0.4276665247826399,-0.2860477111632868,0.8431946956799168,-0.6320301294326782,-0.5075520277023315,-0.585601270198822,28908.45059475,unknown,2,2020-03-06 13:36:35.936 +0100,605191001.0794098,0,-0.2199993,98.77996
2020-03-06 13:36:42.372 +0100,28914.885649375,0.5010833740234375,-0.1222991943359375,-0.1754608154296875,28914.880625375,-0.4044736643174954,-0.7869958486601065,0.5828301246579,-0.1415264755487442,1.71231210231781,-1.384101152420044,1.027261972427368,0.4208797216415405,0.4107813835144043,XArbitraryZVertical,0.1861747175808422,-0.4130693727075452,-0.2856034681999408,0.8444780947092566,-0.5913118124008179,-0.5503890514373779,-0.5894253253936768,28908.45059475,unknown,2,2020-03-06 13:36:35.936 +0100,605191001.0794098,0,-0.2199993,98.77996
2020-03-06 13:36:42.392 +0100,28914.905746375,0.2527618408203125,0.1122589111328125,-0.7587890625,28914.900722375,-0.4229631980829303,-0.7520831631151828,0.602837868644896,1.124792456626892,0.8525413870811462,-1.228638410568237,0.986911416053772,0.3553957939147949,0.03445589542388916,XArbitraryZVertical,0.1963677240176745,-0.4008343956289001,-0.2930352994984727,0.845518625727627,-0.5627405643463135,-0.5669823884963989,-0.6015430092811584,28908.45059475,unknown,2,2020-03-06 13:36:35.936 +0100,605191001.0794098,0,-0.2199993,98.77996
2020-03-06 13:36:42.412 +0100,28914.925844375,-0.547882080078125,-0.5408477783203125,-0.741851806640625,28914.920820375,-0.4155825336216153,-0.7461904070455301,0.6479096131909416,2.414499044418335,0.1717340797185898,-1.442332983016968,0.5571528077125549,0.7440000176429749,-0.2780431509017944,XArbitraryZVertical,0.2187581728853673,-0.3992577067014089,-0.2956448553016537,0.8398405941417112,-0.541276216506958,-0.6035209894180298,-0.585476279258728,28908.45059475,unknown,2,2020-03-06 13:36:35.936 +0100,605191001.0794098,0,-0.2199993,98.77996
2020-03-06 13:36:42.432 +0100,28914.945941375,-1.296112060546875,-1.738067626953125,-0.0391845703125,28914.940917375,-0.4089832316989978,-0.7517394343829107,0.6931760940984755,0.5254503488540649,-0.3683882355690002,-0.6375887393951416,-0.7419108152389526,-1.084337949752808,0.1394990682601929,XArbitraryZVertical,0.2392823884633301,-0.4022255369481025,-0.2997569268266524,0.831326823354165,-0.5253086686134338,-0.6389834880828857,-0.5619171261787415,28908.45059475,unknown,2,2020-03-06 13:36:35.936 +0100,605191001.0794098,0,-0.2199993,98.77996
2020-03-06 13:36:42.452 +0100,28914.966039375,-1.190567016601562,-0.38946533203125,-0.1715240478515625,28914.961015375,-0.4196149335626431,-0.7575966483186319,0.6780590300618289,-1.342230796813965,-0.6041353344917297,0.5503405928611755,-0.6869160532951355,-0.405364990234375,0.4857275485992432,XArbitraryZVertical,0.2295843203788075,-0.4054614564951619,-0.3027819014460377,0.8313934790869142,-0.5351680517196655,-0.6272826194763184,-0.5657840967178345,28908.45059475,unknown,2,2020-03-06 13:36:35.936 +0100,605191001.0794098,0,-0.2199993,98.77996
2020-03-06 13:36:42.473 +0100,28914.986136375,-0.6948394775390625,0.3033905029296875,-0.4515533447265625,28914.981112375,-0.4274616462649282,-0.7603420830582954,0.6605084709636196,-0.1306264847517014,-0.2305076718330383,0.241739347577095,-0.4097028970718384,0.727080762386322,0.2478985786437988,XArbitraryZVertical,0.2198230647694863,-0.4069109443374578,-0.3039160663187606,0.8329083076488982,-0.5442234873771667,-0.6135184764862061,-0.5722026228904724,28908.45059475,unknown,2,2020-03-06 13:36:35.936 +0100,605191001.0794098,0,-0.2199993,98.77996
2020-03-06 13:36:42.493 +0100,28915.006234375,-0.49969482421875,0.0121307373046875,-0.5539703369140625,28915.001209375,-0.4224052358170283,-0.7640515458671542,0.6610080533221736,-0.1446817666292191,-0.08651647716760635,-0.06863537430763245,-0.04788708686828613,0.7828799486160278,0.1152986288070679,XArbitraryZVertical,0.2205116713875896,-0.4079158300557578,-0.3022887748616885,0.8328269866088562,-0.5461302399635315,-0.6139128804206848,-0.5699585676193237,28908.45059475,unknown,2,2020-03-06 13:36:35.936 +0100,605191001.0794098,0,-0.2199993,98.77996
2020-03-06 13:36:42.514 +0100,28915.026331375,-0.60260009765625,-0.5182037353515625,-0.4248809814453125,28915.021307375,-0.4445361220316884,-0.7588723687997074,0.6507730495712317,-1.94574236869812,-0.6656826138496399,-0.4744612276554108,0.04837357997894287,0.463733434677124,0.04383707046508789,XArbitraryZVertical,0.2122663292786325,-0.4077851071847906,-0.3095125127916879,0.8323798971692785,-0.5474660992622375,-0.6058016419410706,-0.5773085951805115,28908.45059475,unknown,2,2020-03-06 13:36:35.936 +0100,605191001.0794098,0,-0.2199993,98.77996
2020-03-06 13:36:42.533 +0100,28915.046429375,-0.368621826171875,-0.634033203125,-0.4418792724609375,28915.041404375,-0.5007201136825186,-0.7424363789218765,0.614200697025135,-3.67877721786499,-1.038938164710999,-0.1990021020174026,0.04506552219390869,-0.09028321504592896,0.2661038637161255,XArbitraryZVertical,0.1872549370953145,-0.4047923394847305,-0.3263149562928339,0.833425020221864,-0.5525199770927429,-0.5763055086135864,-0.6021574735641479,28908.45059475,unknown,2,2020-03-06 13:36:35.936 +0100,605191001.0794098,0,-0.2199993,98.77996
2020-03-06 13:36:42.553 +0100,28915.066526375,0.027496337890625,-0.9124603271484375,-1.242843627929688,28915.061502375,-0.5578395626422749,-0.7287612374285117,0.5516839343515751,-3.947841882705688,-0.756957471370697,0.9348332285881042,0.3372204899787903,-0.3378088474273682,-0.1363363862037659,XArbitraryZVertical,0.1502349528958136,-0.3997081678544798,-0.3408256820328848,0.8375563069994568,-0.5671483278274536,-0.5241220593452454,-0.6353256702423096,28908.45059475,unknown,2,2020-03-06 13:36:35.936 +0100,605191001.0794098,0,-0.2199993,98.77996
2020-03-06 13:36:42.573 +0100,28915.086624375,0.1172943115234375,0.106292724609375,-1.132278442382812,28915.081599375,-0.6049164069117072,-0.731326525175817,0.4843939657983946,-3.914010286331177,-2.019430160522461,0.06261526048183441,0.8357981443405151,0.07624569535255432,-0.6532356739044189,XArbitraryZVertical,0.1104130707834309,-0.3980915659007068,-0.3519208553791782,0.8399308183942329,-0.5910254120826721,-0.4656721353530884,-0.6586641073226929,28908.45059475,unknown,2,2020-03-06 13:36:35.936 +0100,605191001.0794098,0,-0.2199993,98.77996
2020-03-06 13:36:42.593 +0100,28915.106721375,-0.671356201171875,-0.40655517578125,-0.930816650390625,28915.101697375,-0.6666302815074239,-0.7494923222170241,0.4425470418547447,-2.182034254074097,-2.231096506118774,-1.042431473731995,0.3330804109573364,0.4678022265434265,-0.4306293725967407,XArbitraryZVertical,0.07616120622049836,-0.4042805596840679,-0.372961601848635,0.831658775637529,-0.6156365275382996,-0.4282425343990326,-0.6615133881568909,28908.45059475,unknown,2,2020-03-06 13:36:35.936 +0100,605191001.0794098,0,-0.2199993,98.77996
2020-03-06 13:36:42.613 +0100,28915.126819375,-1.406356811523438,-0.9649200439453125,-0.526336669921875,28915.121794375,-0.6943534376958114,-0.7765475200316786,0.4373293090120676,-0.8717221021652222,-1.334731936454773,-0.2118595093488693,-0.3994320631027222,-0.2159346342086792,0.06681603193283081,XArbitraryZVertical,0.06305384432312354,-0.4158401946510268,-0.3846455673617367,0.8216744173635753,-0.6348637342453003,-0.4235216379165649,-0.6462022662162781,28908.45059475,unknown,2,2020-03-06 13:36:35.936 +0100,605191001.0794098,0,-0.2199993,98.77996
2020-03-06 13:36:42.633 +0100,28915.146916375,-0.8185272216796875,-0.4648590087890625,-1.078140258789062,28915.141892375,-0.7122649672351135,-0.7829925262534396,0.4180829741122302,-1.667245030403137,-0.3119715452194214,0.2075735479593277,-0.6731576919555664,-0.5858026742935181,-0.2005821466445923,XArbitraryZVertical,0.04964503114770999,-0.4167224307937956,-0.3894729661398477,0.819871047510598,-0.6446465253829956,-0.4060092866420746,-0.6477555632591248,28908.45059475,unknown,2,2020-03-06 13:36:35.936 +0100,605191001.0794098,0,-0.2199993,98.77996
2020-03-06 13:36:42.653 +0100,28915.167014375,-0.482574462890625,-0.2215576171875,-0.888580322265625,28915.161989375,-0.7303968506285142,-0.7841164679368742,0.4018049773427113,-0.3436883687973022,-0.3232268095016479,-0.3270702362060547,0.1199015378952026,0.09700706601142883,-0.3600896000862122,XArbitraryZVertical,0.03853761614888702,-0.4155753441395763,-0.3946182656305215,0.8185892706754977,-0.6499557495117188,-0.3910802006721497,-0.6516239643096924,28908.45059475,unknown,2,2020-03-06 13:36:35.936 +0100,605191001.0794098,0,-0.2199993,98.77996
2020-03-06 13:36:42.686 +0100,28915.187111375,-0.608612060546875,-0.350860595703125,-0.7592315673828125,28915.182087375,-0.7388397809430642,-0.7845190303846149,0.4117705272686637,0.2164574414491653,-0.08560667932033539,-0.7694064974784851,0.1189651489257812,0.1559333503246307,-0.1811959743499756,XArbitraryZVertical,0.04104692994052642,-0.4171681789005768,-0.399481647379201,0.8152915114752823,-0.6474323868751526,-0.4002324938774109,-0.6485717296600342,28908.45059475,unknown,2,2020-03-06 13:36:35.936 +0100,605191001.0794098,0,-0.2199993,98.77996
2020-03-06 13:36:42.699 +0100,28915.207209375,-0.5634765625,-0.1201171875,-0.5491180419921875,28915.202184375,-0.7491644944328129,-0.7801161010545284,0.421113422474931,-0.2833076417446136,0.02787593752145767,-0.5704992413520813,0.002971410751342773,0.006060779094696045,-0.0797806978225708,XArbitraryZVertical,0.04384989594714569,-0.4167881804745636,-0.4048891499291791,0.8126681730918064,-0.6419122815132141,-0.4087768495082855,-0.6487296223640442,28908.45059475,unknown,2,2020-03-06 13:36:35.936 +0100,605191001.0794098,0,-0.2199993,98.77996
2020-03-06 13:36:42.714 +0100,28915.227306375,-0.5921478271484375,-0.8309783935546875,-0.7298126220703125,28915.222282375,-0.7807164129410527,-0.7670241572817574,0.4166281138085172,-0.4974207878112793,-0.03231380879878998,-1.109373688697815,-0.03322571516036987,0.3223521113395691,0.0003457069396972656,XArbitraryZVertical,0.0380549872952046,-0.411529190434844,-0.416811417888321,0.8096071305105571,-0.6346304416656494,-0.4046792984008789,-0.6583910584449768,28908.45059475,unknown,2,2020-03-06 13:36:35.936 +0100,605191001.0794098,0,-0.2199993,98.77996
2020-03-06 13:36:42.734 +0100,28915.247404375,-0.7616424560546875,-0.64996337890625,-0.6005096435546875,28915.242379375,-0.7886969378610602,-0.7633740323467633,0.4292628811298616,-0.05954615771770477,-0.2724875807762146,-0.4448535144329071,0.0586974024772644,-0.1237072050571442,0.1224002838134766,XArbitraryZVertical,0.04266107652558362,-0.4119488629423922,-0.421622810461716,0.8066673923416967,-0.6286376714706421,-0.4162006676197052,-0.6569563150405884,28908.45059475,unknown,2,2020-03-06 13:36:35.936 +0100,605191001.0794098,0,-0.2199993,98.77996
2020-03-06 13:36:42.754 +0100,28915.267501375,-0.72271728515625,-0.563934326171875,-0.5519866943359375,28915.262477375,-0.7960577827007573,-0.763989920380521,0.4375547753814426,-0.1335010379552841,-0.05051620304584503,-0.5051141381263733,-0.2001737952232361,-0.3394640684127808,0.2268747091293335,XArbitraryZVertical,0.04460613510535395,-0.4135009295624176,-0.4256722015148514,0.8036357628662056,-0.6266331076622009,-0.4237258732318878,-0.6540545225143433,28908.45059475,unknown,2,2020-03-06 13:36:35.936 +0100,605191001.0794098,0,-0.2199993,98.77996
2020-03-06 13:36:42.774 +0100,28915.287599375,-0.53155517578125,-0.475921630859375,-0.564666748046875,28915.282574375,-0.8096140875809871,-0.7625787043605184,0.4359934139338537,-0.5395408272743225,-0.2922121584415436,-0.4048060178756714,0.07062971591949463,-0.04411053657531738,0.1210123300552368,XArbitraryZVertical,0.04143151986325803,-0.4130079208899431,-0.4308810943671409,0.80127981020516,-0.6261656880378723,-0.4223110973834991,-0.6554157733917236,28908.45059475,unknown,2,2020-03-06 13:36:35.936 +0100,605191001.0794098,0,-0.2199993,98.77996
2020-03-06 13:36:42.794 +0100,28915.307696375,-0.5009765625,-0.351806640625,-0.5906524658203125,28915.302672375,-0.828434773976138,-0.7615379956371122,0.4360716357997703,-0.8211157321929932,-0.5262230038642883,-0.7698277831077576,0.08382523059844971,0.03536707162857056,-0.09321928024291992,XArbitraryZVertical,0.03780503659101178,-0.41297602224678,-0.4383924543058853,0.7973917647129362,-0.6254604458808899,-0.4223819971084595,-0.6560431718826294,28908.45059475,unknown,2,2020-03-06 13:36:35.936 +0100,605191001.0794098,0,-0.2199993,98.77996
2020-03-06 13:36:42.814 +0100,28915.327794375,-0.634307861328125,-0.4328155517578125,-0.7899322509765625,28915.322769375,-0.8514281912851273,-0.7632486301235628,0.4376554763821375,-0.5730081796646118,-0.3831704556941986,-0.7840501070022583,0.03139811754226685,-0.07837110757827759,0.1462991833686829,XArbitraryZVertical,0.03335183525691587,-0.4142989529433294,-0.4477552147561248,0.7916813424729116,-0.6261186003684998,-0.4238170981407166,-0.6544880867004395,28908.45059475,unknown,2,2020-03-06 13:36:35.936 +0100,605191001.0794098,0,-0.2199993,98.77996
2020-03-06 13:36:42.835 +0100,28915.347891375,-0.6695098876953125,-0.4198455810546875,-0.6350555419921875,28915.342867375,-0.8774280046098449,-0.7662708358411703,0.4366192020160894,-0.8999013900756836,-0.8698984384536743,-0.8590614199638367,0.02838242053985596,0.05844628810882568,-0.04123878479003906,XArbitraryZVertical,0.02682862345033128,-0.4157232085738771,-0.4579237075879465,0.7853408538244876,-0.6283979415893555,-0.4228782653808594,-0.6529088616371155,28908.45059475,unknown,2,2020-03-06 13:36:35.936 +0100,605191001.0794098,0,-0.2199993,98.77996
2020-03-06 13:36:42.854 +0100,28915.367988375,-0.605224609375,-0.404205322265625,-0.728057861328125,28915.362964375,-0.9020182242440795,-0.7723473938562284,0.4374380247057092,-0.4972708523273468,-0.8916351795196533,-0.7501266598701477,-0.008446216583251953,0.002928972244262695,-0.02191042900085449,XArbitraryZVertical,0.02064251914566883,-0.4185198122049141,-0.4677081771502991,0.7782441948749198,-0.6321119070053101,-0.4236201047897339,-0.6488301157951355,28908.45059475,unknown,2,2020-03-06 13:36:35.936 +0100,605191001.0794098,0,-0.2199993,98.77996
2020-03-06 13:36:42.875 +0100,28915.388086375,-0.671478271484375,-0.4297027587890625,-0.6266326904296875,28915.383062375,-0.9216140191678103,-0.7820130025420623,0.4408278101102767,-0.4343801736831665,-0.8433301448822021,-0.838157594203949,0.0251460075378418,0.09140065312385559,-0.04768866300582886,XArbitraryZVertical,0.01567610774324078,-0.4229898828262218,-0.475798072269634,0.7710057985141546,-0.6373379826545715,-0.4266882836818695,-0.6416676640510559,28908.45059475,unknown,2,2020-03-06 13:36:35.936 +0100,605191001.0794098,0,-0.2199993,98.77996
2020-03-06 13:36:42.895 +0100,28915.408183375,-0.726348876953125,-0.5125885009765625,-0.76300048828125,28915.403159375,-0.9417182109572613,-0.7840519313924484,0.4499045346298688,-0.3716651797294617,-0.3544165194034576,-1.005319952964783,-0.09940081834793091,-0.08368152379989624,-0.06449908018112183,XArbitraryZVertical,0.01474960821165559,-0.4254213639543007,-0.4846224125650707,0.7641597924976145,-0.6358838081359863,-0.4348795711994171,-0.6375982165336609,28908.45059475,unknown,2,2020-03-06 13:36:35.936 +0100,605191001.0794098,0,-0.2199993,98.77996
2020-03-06 13:36:42.915 +0100,28915.428281375,-0.667022705078125,-0.441680908203125,-0.7689056396484375,28915.423257375,-0.9657623432489632,-0.7767841726142517,0.456225353205249,-0.663668155670166,0.1044684126973152,-1.024581074714661,-0.05179178714752197,-0.02170896530151367,0.04962837696075439,XArbitraryZVertical,0.01407765725890816,-0.4238950629938911,-0.4944635683641767,0.7586965403241236,-0.62929368019104,-0.4405626654624939,-0.6402295827865601,28908.45059475,unknown,2,2020-03-06 13:36:35.936 +0100,605191001.0794098,0,-0.2199993,98.77996
2020-03-06 13:36:42.935 +0100,28915.448378375,-0.6335906982421875,-0.3331451416015625,-0.8157501220703125,28915.443354375,-0.9916273654346692,-0.761929891785428,0.464858645230127,-0.3771599531173706,0.206360712647438,-1.138840675354004,-0.007867217063903809,0.05403310060501099,-0.08670854568481445,XArbitraryZVertical,0.01594523945533475,-0.4199768946944862,-0.5050953915819399,0.7538194371278278,-0.6170657873153687,-0.448296457529068,-0.6467303037643433,28908.45059475,unknown,2,2020-03-06 13:36:35.936 +0100,605191001.0794098,0,-0.2199993,98.77996
