loggingTime(txt),accelerometerTimestamp_sinceReboot(s),accelerometerAccelerationX(G),accelerometerAccelerationY(G),accelerometerAccelerationZ(G),motionTimestamp_sinceReboot(s),motionYaw(rad),motionRoll(rad),motionPitch(rad),motionRotationRateX(rad/s),motionRotationRateY(rad/s),motionRotationRateZ(rad/s),motionUserAccelerationX(G),motionUserAccelerationY(G),motionUserAccelerationZ(G),motionAttitudeReferenceFrame(txt),motionQuaternionX(R),motionQuaternionY(R),motionQuaternionZ(R),motionQuaternionW(R),motionGravityX(G),motionGravityY(G),motionGravityZ(G),activityTimestamp_sinceReboot(s),activity(txt),activityActivityConfidence(Z),activityActivityStartDate(txt),altimeterTimestamp_sinceReboot(s),altimeterReset(bool),altimeterRelativeAltitude(m),altimeterPressure(kPa)
2020-03-06 13:28:13.895 +0100,28577.775983,-0.0559844970703125,-0.398895263671875,-0.8943328857421875,28577.765935,0.1636331083530057,-0.05116811670553841,0.4127748148061631,0.07158181816339493,-0.08006307482719421,-0.04915628582239151,0.01836173236370087,0.08184587955474854,0.002443850040435791,XArbitraryZVertical,0.2062192690839148,-0.008212510203246788,0.07474001327353585,0.9756126055119546,-0.04685011878609657,-0.401152640581131,-0.9148123264312744,28571.908848125,unknown,2,2020-03-06 13:28:07.922 +0100,605190493.0725034,0,0.02000046,98.77663
2020-03-06 13:28:13.909 +0100,28577.791056,-0.0630645751953125,-0.422607421875,-0.890228271484375,28577.781007,0.1620598123852926,-0.0518810472869982,0.4137166856713458,-0.02063773944973946,-0.0927831307053566,-0.1304072588682175,-0.004473712295293808,0.03061497211456299,0.01408690214157104,XArbitraryZVertical,0.2066981426730501,-0.008682730288386469,0.07387927868771729,0.975572782855354,-0.0474826917052269,-0.402015209197998,-0.9144009947776794,28571.908848125,unknown,2,2020-03-06 13:28:07.922 +0100,605190493.0725034,0,0.02000046,98.77663
2020-03-06 13:28:13.918 +0100,28577.806128,-0.0618133544921875,-0.4170379638671875,-0.903594970703125,28577.79608,0.1595380828027409,-0.05206257749169284,0.4118872523011006,-0.2127094715833664,-0.05785136297345161,-0.1585846990346909,-0.01537793874740601,-0.02226936817169189,0.02489727735519409,XArbitraryZVertical,0.2058018526671498,-0.00910808018730576,0.072668554085058,0.9758493237614148,-0.0476868748664856,-0.4003394544124603,-0.91512531042099,28571.908848125,unknown,2,2020-03-06 13:28:07.922 +0100,605190493.0725034,0,0.02000046,98.77663
2020-03-06 13:28:13.919 +0100,28577.821201,-0.0673675537109375,-0.415802001953125,-0.90045166015625,28577.811152,0.15675808489423,-0.05153992908283497,0.4083190933896839,-0.273233026266098,-0.01872897893190384,-0.1417319923639297,-0.01573716849088669,-0.02567896246910095,0.01470041275024414,XArbitraryZVertical,0.2040303298707493,-0.009285146266598732,0.07143913607027155,0.9763102795543275,-0.04728186875581741,-0.3970671594142914,-0.9165708422660828,28571.908848125,unknown,2,2020-03-06 13:28:07.922 +0100,605190493.0725034,0,0.02000046,98.77663
2020-03-06 13:28:13.919 +0100,28577.836273,-0.0710601806640625,-0.4186248779296875,-0.8840789794921875,28577.826225,0.1552536141555197,-0.05097958805214116,0.4048326036840862,-0.170326367020607,-8.498784154653549e-05,-0.007338762283325195,-0.02052925527095795,-0.02193844318389893,0.01752275228500366,XArbitraryZVertical,0.2023025141341142,-0.009306376471825717,0.07083252803718978,0.9767137361884453,-0.04683852940797806,-0.3938648998737335,-0.9179741740226746,28571.908848125,unknown,2,2020-03-06 13:28:07.922 +0100,605190493.0725034,0,0.02000046,98.77663
2020-03-06 13:28:13.920 +0100,28577.851345,-0.0640411376953125,-0.4105377197265625,-0.8758697509765625,28577.841297,0.155700374262807,-0.05080344188990725,0.4027312007161943,-0.1311278790235519,0.04197071865200996,0.06901223212480545,-0.025943823158741,-0.02870786190032959,0.0278465747833252,XArbitraryZVertical,0.2012728243187489,-0.009260530335898534,0.07111096509076616,0.9769066962559013,-0.04671875759959221,-0.391932487487793,-0.9188069701194763,28571.908848125,unknown,2,2020-03-06 13:28:07.922 +0100,605190493.0725034,0,0.02000046,98.77663
2020-03-06 13:28:13.921 +0100,28577.866418,-0.0542755126953125,-0.37469482421875,-0.892669677734375,28577.85637,0.1568823379009484,-0.0504533656724917,0.4003255031694209,-0.1572932451963425,0.05798202753067017,0.08643270283937454,-0.01759685575962067,-0.0208209753036499,0.04389280080795288,XArbitraryZVertical,0.2000914904510999,-0.009068957336975488,0.07177194612832496,0.9771028305590713,-0.04644452035427094,-0.3897181153297424,-0.9197623133659363,28571.908848125,unknown,2,2020-03-06 13:28:07.922 +0100,605190493.0725034,0,0.02000046,98.77663
2020-03-06 13:28:13.921 +0100,28577.88149,-0.0568695068359375,-0.3722381591796875,-0.9049530029296875,28577.871442,0.1578811262153318,-0.04999690317089216,0.398004450672701,-0.1426106095314026,0.0618688091635704,0.04043848067522049,-0.008434861898422241,0.002064913511276245,0.03428632020950317,XArbitraryZVertical,0.1989463677603186,-0.008841439272839768,0.07235204830926939,0.977295897301562,-0.04606975987553596,-0.3875795602798462,-0.9206843376159668,28571.908848125,unknown,2,2020-03-06 13:28:07.922 +0100,605190493.0725034,0,0.02000046,98.77663
2020-03-06 13:28:13.922 +0100,28577.896563,-0.0557098388671875,-0.3736572265625,-0.90753173828125,28577.886514,0.1580457059198563,-0.04920810981196793,0.3964923634003029,-0.06410887837409973,0.06439881026744843,0.001494809985160828,-0.01149744540452957,0.01394566893577576,0.01635193824768066,XArbitraryZVertical,0.1981801601525461,-0.008501777389320363,0.07254087862395067,0.9774405737207978,-0.04537228867411613,-0.3861851990222931,-0.9213047027587891,28571.908848125,unknown,2,2020-03-06 13:28:07.922 +0100,605190493.0725034,0,0.02000046,98.77663
2020-03-06 13:28:13.926 +0100,28577.911635,-0.06097412109375,-0.3733978271484375,-0.90667724609375,28577.901587,0.157975094701029,-0.04810219350346813,0.3962395158169584,0.0197801049798727,0.07194852828979492,-0.01503553055226803,-0.01165717095136642,0.008829623460769653,0.0136304497718811,XArbitraryZVertical,0.1980162498350495,-0.007978662770931413,0.07262087636919121,0.9774722959204921,-0.04435807093977928,-0.385951966047287,-0.9214518070220947,28571.908848125,unknown,2,2020-03-06 13:28:07.922 +0100,605190493.0725034,0,0.02000046,98.77663
2020-03-06 13:28:13.941 +0100,28577.926708,-0.0672760009765625,-0.3907623291015625,-0.90899658203125,28577.916659,0.1576509426558852,-0.04700346504575268,0.3969672089569991,0.06486454606056213,0.06525421887636185,-0.02593947760760784,-0.01764192432165146,0.01322400569915771,0.01454222202301025,XArbitraryZVertical,0.1983305007156654,-0.007443998876159807,0.07255722482215038,0.9774174939315559,-0.04333240911364555,-0.3866231739521027,-0.9212191700935364,28571.908848125,unknown,2,2020-03-06 13:28:07.922 +0100,605190493.0725034,0,0.02000046,98.77663
2020-03-06 13:28:13.956 +0100,28577.94178,-0.067352294921875,-0.3863067626953125,-0.9084625244140625,28577.931732,0.1576397541869309,-0.04618448626646469,0.3988213990007154,0.1695738136768341,0.0464896447956562,0.005988029763102531,-0.02430420741438866,0.004709929227828979,0.01216602325439453,XArbitraryZVertical,0.1992061388224923,-0.006969109672945741,0.07259762036471257,0.9772399398420932,-0.04254476726055145,-0.3883325159549713,-0.9205366969108582,28571.908848125,unknown,2,2020-03-06 13:28:07.922 +0100,605190493.0725034,0,0.02000046,98.77663
2020-03-06 13:28:13.971 +0100,28577.956852,-0.0537261962890625,-0.37335205078125,-0.9080657958984375,28577.946804,0.1576257489744618,-0.04556242718033129,0.4015296655670447,0.1533887088298798,0.0396229512989521,-0.04077840968966484,-0.02542844414710999,0.004518598318099976,0.01104676723480225,XArbitraryZVertical,0.200505677168284,-0.006555982898718434,0.07260141234604621,0.9769766976677957,-0.04192407429218292,-0.3908267915248871,-0.9195089936256409,28571.908848125,unknown,2,2020-03-06 13:28:07.922 +0100,605190493.0725034,0,0.02000046,98.77663
2020-03-06 13:28:13.986 +0100,28577.971925,-0.057891845703125,-0.4020538330078125,-0.925872802734375,28577.961877,0.1566884288448497,-0.04453299350359514,0.4030287946709842,0.05609268322587013,0.0518365167081356,-0.06957600265741348,-0.01512492448091507,0.02248430252075195,0.01186108589172363,XArbitraryZVertical,0.2011971779979413,-0.00608627574963766,0.0722187066594516,0.9768659439686083,-0.04095135256648064,-0.3922062516212463,-0.9189652800559998,28571.908848125,unknown,2,2020-03-06 13:28:07.922 +0100,605190493.0725034,0,0.02000046,98.77663
2020-03-06 13:28:14.001 +0100,28577.986997,-0.050933837890625,-0.3711090087890625,-0.92205810546875,28577.976949,0.1557098830714314,-0.04331199318802672,0.4038686977505397,0.06490109860897064,0.04957442730665207,-0.06798157095909119,-0.01807709038257599,-0.00907665491104126,-0.007187306880950928,XArbitraryZVertical,0.2015602920223667,-0.005554506998660023,0.07184813448896485,0.9768215848035151,-0.03981498628854752,-0.3929787278175354,-0.9186851978302002,28571.908848125,unknown,2,2020-03-06 13:28:07.922 +0100,605190493.0725034,0,0.02000046,98.77663
2020-03-06 13:28:14.017 +0100,28578.00207,-0.039337158203125,-0.375732421875,-0.9101409912109375,28577.992021,0.1539819536265442,-0.04208812252332007,0.4047012418287122,0.02200023084878922,0.02877727150917053,-0.1540171205997467,-0.01617874577641487,0.01015189290046692,-0.006001591682434082,XArbitraryZVertical,0.2019182967363306,-0.005097742884239434,0.07111251272984284,0.9768039509705984,-0.03867682442069054,-0.3937441408634186,-0.9184060096740723,28571.908848125,unknown,2,2020-03-06 13:28:07.922 +0100,605190493.0725034,0,0.02000046,98.77663
2020-03-06 13:28:14.031 +0100,28578.017142,-0.03369140625,-0.4166107177734375,-0.91412353515625,28578.007094,0.1489916088741017,-0.03954862288102059,0.4049220278421811,-0.009605632163584232,-0.01595664396882057,-0.4497537016868591,-0.002996403723955154,0.01821306347846985,0.008273720741271973,XArbitraryZVertical,0.2019253732332476,-0.004352540400110383,0.06892752972419663,0.9769626970945359,-0.03634097427129745,-0.3939470946788788,-0.9184144139289856,28571.908848125,unknown,2,2020-03-06 13:28:07.922 +0100,605190493.0725034,0,0.02000046,98.77663
2020-03-06 13:28:14.046 +0100,28578.032215,-0.04827880859375,-0.426910400390625,-0.9275054931640625,28578.022166,0.1430469811854642,-0.03715105625640387,0.4043056334526212,-0.08770979195833206,0.005924359895288944,-0.251680314540863,0.004103153944015503,-0.008263051509857178,-0.0009207725524902344,XArbitraryZVertical,0.2015312499225498,-0.003804013969565823,0.06627540958139069,0.9772298261335103,-0.03414792567491531,-0.3933804631233215,-0.9187413454055786,28571.908848125,unknown,2,2020-03-06 13:28:07.922 +0100,605190493.0725034,0,0.02000046,98.77663
2020-03-06 13:28:14.062 +0100,28578.047287,-0.014190673828125,-0.3551177978515625,-0.9292755126953125,28578.037239,0.1386070593954928,-0.03545115973186447,0.4026098818093597,-0.1554207801818848,-0.009263617917895317,-0.3706710040569305,-0.0156693160533905,-0.03509125113487244,-0.008041739463806152,XArbitraryZVertical,0.2006393894426951,-0.003481195671234521,0.06430354375208291,0.9775462863539881,-0.03260970860719681,-0.391820877790451,-0.9194634556770325,28571.908848125,unknown,2,2020-03-06 13:28:07.922 +0100,605190493.0725034,0,0.02000046,98.77663
2020-03-06 13:28:14.077 +0100,28578.06236,0.003143310546875,-0.3514862060546875,-0.9337921142578125,28578.052311,0.1300372991949061,-0.03279412198741942,0.4006273783061172,-0.1208502650260925,-0.07397255301475525,-0.6293296217918396,0.002451276406645775,0.01444512605667114,-0.00761103630065918,XArbitraryZVertical,0.1995736629461043,-0.00310816599803466,0.06040951558735051,0.9780139301968142,-0.03019195608794689,-0.3899961113929749,-0.9203214049339294,28571.908848125,unknown,2,2020-03-06 13:28:07.922 +0100,605190493.0725034,0,0.02000046,98.77663
2020-03-06 13:28:14.092 +0100,28578.077432,-0.0667724609375,-0.4452972412109375,-0.928009033203125,28578.067384,0.1202472218381146,-0.0304714781074641,0.4009005718008896,0.1434943079948425,-0.102408193051815,-0.4640511870384216,0.03119416162371635,0.03875964879989624,-0.01350927352905273,XArbitraryZVertical,0.1996248972462108,-0.00294046955599689,0.05584943320546425,0.9782750507170932,-0.02805105037987232,-0.3902476727962494,-0.9202824831008911,28571.908848125,unknown,2,2020-03-06 13:28:07.922 +0100,605190493.0725034,0,0.02000046,98.77663
2020-03-06 13:28:14.107 +0100,28578.092504,-0.090850830078125,-0.4372406005859375,-0.9086761474609375,28578.082456,0.1168593525962663,-0.03021115126600546,0.4038995859429413,0.1929770261049271,-0.03749154135584831,-0.0008570272475481033,-0.01189704611897469,-0.0361328125,-0.01821601390838623,XArbitraryZVertical,0.20107889572733,-0.003060960256211445,0.05417855021498531,0.9780708317784774,-0.02777599729597569,-0.3930071294307709,-0.9191158413887024,28571.908848125,unknown,2,2020-03-06 13:28:07.922 +0100,605190493.0725034,0,0.02000046,98.77663
2020-03-06 13:28:14.122 +0100,28578.107577,-0.0405120849609375,-0.4404296875,-0.898956298828125,28578.097529,0.1177139902740961,-0.03083218834445415,0.4057991595119508,0.05673239752650261,-0.00402800552546978,0.04371510446071625,-0.06252729892730713,-0.04248926043510437,0.009674787521362305,XArbitraryZVertical,0.2020256283569151,-0.003221076376197703,0.05450850304869782,0.9778568669997356,-0.02832373231649399,-0.3947531580924988,-0.9183505177497864,28571.908848125,unknown,2,2020-03-06 13:28:07.922 +0100,605190493.0725034,0,0.02000046,98.77663
2020-03-06 13:28:14.137 +0100,28578.122649,-0.0121002197265625,-0.4384613037109375,-0.8943328857421875,28578.112601,0.117884896860675,-0.03085157831094736,0.4056173593025584,-0.07512076199054718,0.006413821130990982,-0.004992284346371889,-0.0326000489294529,-0.04398375749588013,0.01620036363601685,XArbitraryZVertical,0.2019375749892867,-0.003218819493566507,0.05459255434554508,0.9778703860343194,-0.02834375202655792,-0.3945861160755157,-0.9184216856956482,28571.908848125,unknown,2,2020-03-06 13:28:07.922 +0100,605190493.0725034,0,0.02000046,98.77663
2020-03-06 13:28:14.152 +0100,28578.137722,-0.039764404296875,-0.4234161376953125,-0.894195556640625,28578.127673,0.1179005790018866,-0.03096242430396744,0.4042087444189142,-0.1020916625857353,-0.01782866753637791,0.01190840266644955,0.01636231690645218,-0.04517164826393127,0.02464067935943604,XArbitraryZVertical,0.2012521147112328,-0.003314263719768078,0.05460803457627205,0.9780105009606324,-0.0284627340734005,-0.3932913839817047,-0.9189732074737549,28571.908848125,unknown,2,2020-03-06 13:28:07.922 +0100,605190493.0725034,0,0.02000046,98.77663
2020-03-06 13:28:14.167 +0100,28578.152794,-0.0489654541015625,-0.4173583984375,-0.89361572265625,28578.142746,0.1179482328788592,-0.03108702074037932,0.4026728498082222,-0.08974768221378326,0.003854995593428612,0.0009811865165829659,0.0003822781145572662,-0.03768837451934814,0.02603328227996826,XArbitraryZVertical,0.2005047565580275,-0.003417124049916618,0.05463954016354881,0.9781618974024302,-0.02859597653150558,-0.3918788135051727,-0.9195723533630371,28571.908848125,unknown,2,2020-03-06 13:28:07.922 +0100,605190493.0725034,0,0.02000046,98.77663
2020-03-06 13:28:14.182 +0100,28578.167867,-0.0333251953125,-0.40496826171875,-0.89971923828125,28578.157818,0.1180405844155602,-0.03076204903205924,0.4014794605072901,-0.06736236810684204,0.04244707152247429,0.02147268131375313,-0.02065414376556873,-0.02657949924468994,0.02643299102783203,XArbitraryZVertical,0.199912553170864,-0.00328524067873928,0.0547332925519612,0.9782782693516087,-0.02831150405108929,-0.3907805979251862,-0.9200483560562134,28571.908848125,unknown,2,2020-03-06 13:28:07.922 +0100,605190493.0725034,0,0.02000046,98.77663
2020-03-06 13:28:14.197 +0100,28578.182939,-0.0311737060546875,-0.38519287109375,-0.8990631103515625,28578.172891,0.1185247238573822,-0.0302526536594501,0.4008211372394322,-0.01839476823806763,0.04919600859284401,0.03394682705402374,-0.01095268316566944,-0.02117359638214111,0.02276742458343506,XArbitraryZVertical,0.1995774315024666,-0.0030077788184706,0.05502977160255426,0.9783309671909977,-0.02785060741007328,-0.39017453789711,-0.9203196167945862,28571.908848125,unknown,2,2020-03-06 13:28:07.922 +0100,605190493.0725034,0,0.02000046,98.77663
2020-03-06 13:28:14.212 +0100,28578.198011,-0.044769287109375,-0.383331298828125,-0.89947509765625,28578.187963,0.1189697440688828,-0.02993316140127214,0.401506495871146,0.0973384827375412,0.03976335749030113,0.0108420392498374,-0.003625333309173584,0.005610942840576172,0.02099817991256714,XArbitraryZVertical,0.199904382158186,-0.002786106769233778,0.0552702640331303,0.9782513218599095,-0.02754856087267399,-0.3908054828643799,-0.920060932636261,28571.908848125,unknown,2,2020-03-06 13:28:07.922 +0100,605190493.0725034,0,0.02000046,98.77663
2020-03-06 13:28:14.228 +0100,28578.213084,-0.053070068359375,-0.426910400390625,-0.892822265625,28578.203036,0.1191353832136165,-0.02919710099279943,0.4038729937759585,0.1973921209573746,0.06905481964349747,0.005905604921281338,-0.0125541165471077,0.01293033361434937,0.01935875415802002,XArbitraryZVertical,0.2010411843236704,-0.002337067000287096,0.05539386839537384,0.9780125299312745,-0.02684425935149193,-0.3929826617240906,-0.9191539883613586,28571.908848125,unknown,2,2020-03-06 13:28:07.922 +0100,605190493.0725034,0,0.02000046,98.77663
2020-03-06 13:28:14.243 +0100,28578.228156,-0.0507965087890625,-0.46173095703125,-0.8938751220703125,28578.218108,0.1196073858178264,-0.02806945551109823,0.4071160262476936,0.1952692270278931,0.0991331934928894,0.03669823706150055,-0.02729839086532593,-0.03094941377639771,0.02508294582366943,XArbitraryZVertical,0.202595377345995,-0.001638706843789996,0.05569626037768257,0.9776759629695797,-0.02577185817062855,-0.3959627151489258,-0.9179048538208008,28571.908848125,unknown,2,2020-03-06 13:28:07.922 +0100,605190493.0725034,0,0.02000046,98.77663
2020-03-06 13:28:14.258 +0100,28578.243229,-0.0398101806640625,-0.4522552490234375,-0.897918701171875,28578.23318,0.120478407206992,-0.02674857531193747,0.4092024986879435,0.06862082332372665,0.119638666510582,0.05426307767629623,-0.02683927118778229,-0.05611863732337952,0.02244198322296143,XArbitraryZVertical,0.2035784269917738,-0.0008404751117908494,0.05622946658229695,0.9774422591287747,-0.02453724481165409,-0.3978777825832367,-0.9171102643013,28571.908848125,unknown,2,2020-03-06 13:28:07.922 +0100,605190493.0725034,0,0.02000046,98.77663
2020-03-06 13:28:14.273 +0100,28578.258301,-0.02935791015625,-0.428192138671875,-0.909271240234375,28578.248253,0.1214583691792939,-0.02537297324911209,0.4093073694697371,-0.05131436511874199,0.1198855340480804,0.06044401228427887,-0.01653576083481312,-0.05428287386894226,0.01918303966522217,XArbitraryZVertical,0.2035910009927563,-6.520736435882118e-05,0.0568471005940288,0.9774042523935642,-0.02327458374202251,-0.3979740142822266,-0.9171013832092285,28571.908848125,unknown,2,2020-03-06 13:28:07.922 +0100,605190493.0725034,0,0.02000046,98.77663
2020-03-06 13:28:14.288 +0100,28578.273374,-0.02825927734375,-0.3974456787109375,-0.923126220703125,28578.263325,0.1224903238345854,-0.02381712207834228,0.4083791158636936,-0.0507170781493187,0.135965883731842,0.07354879379272461,-0.01102637499570847,-0.04042509198188782,0.01343774795532227,XArbitraryZVertical,0.2030928331122301,0.0007712331806112955,0.05752094406030132,0.9774681070989769,-0.02185647189617157,-0.3971222639083862,-0.9175053834915161,28571.908848125,unknown,2,2020-03-06 13:28:07.922 +0100,605190493.0725034,0,0.02000046,98.77663
2020-03-06 13:28:14.303 +0100,28578.288446,-0.0328369140625,-0.3724517822265625,-0.9385528564453125,28578.278398,0.1237620746616147,-0.02248570261188304,0.40835748465018,0.06721756607294083,0.1160473600029945,0.0771532878279686,-0.007624369114637375,-0.0003449022769927979,-0.005583584308624268,XArbitraryZVertical,0.2030429741013787,0.001550379600435492,0.05827792041519643,0.977432737813494,-0.02063506096601486,-0.397102415561676,-0.9175422787666321,28571.908848125,unknown,2,2020-03-06 13:28:07.922 +0100,605190493.0725034,0,0.02000046,98.77663
2020-03-06 13:28:14.318 +0100,28578.303518,-0.0290374755859375,-0.379302978515625,-0.9358062744140625,28578.29347,0.1251566700722184,-0.02136174194399484,0.4104720658618863,0.2087971121072769,0.1120193898677826,0.0840575322508812,-0.01236626505851746,0.0216754674911499,-0.01857906579971313,XArbitraryZVertical,0.204041662388092,0.002308262338614134,0.05904908837469756,0.9771769616678071,-0.01958578638732433,-0.3990422189235687,-0.916723370552063,28571.908848125,unknown,2,2020-03-06 13:28:07.922 +0100,605190493.0725034,0,0.02000046,98.77663
2020-03-06 13:28:14.333 +0100,28578.318591,-0.0303802490234375,-0.4164581298828125,-0.932220458984375,28578.308543,0.1268467552731358,-0.02043758095192643,0.4144676308215104,0.2958241701126099,0.1128870472311974,0.1067782938480377,-0.01033177971839905,0.02339798212051392,-0.02066624164581299,XArbitraryZVertical,0.2059630944188105,0.00306029921514405,0.059923229211442,0.9767184957628344,-0.01870584487915039,-0.4027026891708374,-0.9151396751403809,28571.908848125,unknown,2,2020-03-06 13:28:07.922 +0100,605190493.0725034,0,0.02000046,98.77663
2020-03-06 13:28:14.348 +0100,28578.333663,-0.024627685546875,-0.4373321533203125,-0.921905517578125,28578.323615,0.1288964676379945,-0.01954407702935652,0.4188457768029408,0.2635537981987,0.118387445807457,0.1302428096532822,-0.01286255940794945,0.003307878971099854,-0.01987314224243164,XArbitraryZVertical,0.2080695181564443,0.003850047346746676,0.06096615737833131,0.9762045677247411,-0.01785353012382984,-0.4067062735557556,-0.9133844971656799,28571.908848125,unknown,2,2020-03-06 13:28:07.922 +0100,605190493.0725034,0,0.02000046,98.77663
2020-03-06 13:28:14.363 +0100,28578.348736,-0.0161895751953125,-0.4412384033203125,-0.928009033203125,28578.338687,0.1312431458037108,-0.01877982838149441,0.4220072622605714,0.1399204283952713,0.114342674612999,0.1347665786743164,-0.007496589794754982,-0.02774158120155334,-0.009797394275665283,XArbitraryZVertical,0.2095834531234339,0.004571644811778949,0.06215492222608243,0.9758025569151132,-0.01713124103844166,-0.4095924496650696,-0.9121077656745911,28571.908848125,unknown,2,2020-03-06 13:28:07.922 +0100,605190493.0725034,0,0.02000046,98.77663
2020-03-06 13:28:14.389 +0100,28578.363808,-0.01873779296875,-0.4320526123046875,-0.9321746826171875,28578.35376,0.1333951928665715,-0.01798062463764752,0.4229753169257705,-0.01032858528196812,0.1121954247355461,0.1230304911732674,-0.002678487449884415,-0.03181767463684082,-0.01303422451019287,XArbitraryZVertical,0.2100252745785906,0.005219515574072823,0.06327760631232404,0.975632140223442,-0.01639513857662678,-0.4104753732681274,-0.9117242693901062,28571.908848125,unknown,2,2020-03-06 13:28:07.922 +0100,605190493.0725034,0,0.02000046,98.77663
2020-03-06 13:28:14.405 +0100,28578.378881,-0.0220184326171875,-0.39208984375,-0.9478302001953125,28578.368832,0.1355009236725705,-0.01719743667479332,0.4219472575752601,-0.09432415664196014,0.103274367749691,0.1292420476675034,-0.003049599006772041,-0.02251669764518738,-0.02001601457595825,XArbitraryZVertical,0.2094931013980068,0.005787718025528217,0.06439862737541446,0.9756699702654227,-0.015688331797719,-0.4095377027988434,-0.9121583104133606,28571.908848125,unknown,2,2020-03-06 13:28:07.922 +0100,605190493.0725034,0,0.02000046,98.77663
2020-03-06 13:28:14.409 +0100,28578.393953,-0.023468017578125,-0.3592529296875,-0.9500885009765625,28578.383905,0.1374772133963845,-0.01662756247291515,0.420723219173229,-0.03931890055537224,0.08518065512180328,0.1114256083965302,-0.004201959818601608,0.0007040798664093018,-0.02876877784729004,XArbitraryZVertical,0.2088716715596277,0.00623054480112192,0.06543614272902482,0.9757314170716567,-0.01517683640122414,-0.4084207117557526,-0.9126676321029663,28571.908848125,unknown,2,2020-03-06 13:28:07.922 +0100,605190493.0725034,0,0.02000046,98.77663
2020-03-06 13:28:14.424 +0100,28578.409026,-0.03021240234375,-0.3635101318359375,-0.9398956298828125,28578.398977,0.1391473422003095,-0.01607910528232583,0.4209858539565477,0.09150210022926331,0.08327517658472061,0.09024018794298172,-0.008793600834906101,0.04940563440322876,-0.03751957416534424,XArbitraryZVertical,0.2089763007712908,0.006681667590111584,0.06630525348708449,0.9756473970346344,-0.01467454992234707,-0.4086604416370392,-0.9125685095787048,28571.908848125,unknown,2,2020-03-06 13:28:07.922 +0100,605190493.0725034,0,0.02000046,98.77663
2020-03-06 13:28:14.438 +0100,28578.424098,-0.0350799560546875,-0.40118408203125,-0.93927001953125,28578.41405,0.1405822419926451,-0.01549162566797033,0.4233215963376824,0.2072616964578629,0.07481536269187927,0.07945907860994339,-0.01329656597226858,0.05289444327354431,-0.03163212537765503,XArbitraryZVertical,0.2100907347909565,0.007200260671367746,0.06704058960582863,0.9753540343415886,-0.01412360649555922,-0.4107910990715027,-0.9116200804710388,28571.908848125,unknown,2,2020-03-06 13:28:07.922 +0100,605190493.0725034,0,0.02000046,98.77663
2020-03-06 13:28:14.454 +0100,28578.439170875,-0.0253143310546875,-0.434722900390625,-0.9318695068359375,28578.429122875,0.1419744421713522,-0.0148923368133657,0.4266492819495342,0.2111349999904633,0.08181974291801453,0.08967602998018265,-0.02152323350310326,0.01263687014579773,-0.02901315689086914,XArbitraryZVertical,0.2116874602210162,0.007756708632925676,0.06774549644060152,0.9749557565468437,-0.01355684828013182,-0.4138227701187134,-0.9102565050125122,28571.908848125,unknown,2,2020-03-06 13:28:07.922 +0100,605190493.0725034,0,0.02000046,98.77663
2020-03-06 13:28:14.469 +0100,28578.454243875,-0.01165771484375,-0.4422607421875,-0.9238739013671875,28578.444195875,0.1435370757507318,-0.01433487668421269,0.4291830136728064,0.1155100017786026,0.07553078979253769,0.09183469414710999,-0.01713240891695023,-0.01041799783706665,-0.02476221323013306,XArbitraryZVertical,0.2128968460209335,0.008284526543182529,0.06853808351439999,0.97463266227482,-0.01303434371948242,-0.4161280393600464,-0.909212589263916,28571.908848125,unknown,2,2020-03-06 13:28:07.922 +0100,605190493.0725034,0,0.02000046,98.77663
2020-03-06 13:28:14.484 +0100,28578.469315875,-0.011932373046875,-0.42706298828125,-0.9193878173828125,28578.459267875,0.144989803543483,-0.01389109238521888,0.4300840655912012,0.01546251308172941,0.06575167924165726,0.08312599360942841,0.0009677968919277191,-0.02531537413597107,-0.01503050327301025,XArbitraryZVertical,0.2133143611698805,0.008687964312149568,0.06928323635800289,0.9744851468259136,-0.01262563467025757,-0.416947215795517,-0.9088429808616638,28571.908848125,unknown,2,2020-03-06 13:28:07.922 +0100,605190493.0725034,0,0.02000046,98.77663
2020-03-06 13:28:14.499 +0100,28578.484388875,-0.0078277587890625,-0.406890869140625,-0.917572021484375,28578.474339875,0.1463862982675553,-0.01361804767707776,0.4298882527547679,-0.01934566721320152,0.05274135619401932,0.08764753490686417,3.589317202568054e-06,-0.01844385266304016,-0.01268714666366577,XArbitraryZVertical,0.2132033065934642,0.008962804338108084,0.06999494911123455,0.9744560954049428,-0.01237859018146992,-0.4167692363262177,-0.9089280366897583,28571.908848125,unknown,2,2020-03-06 13:28:07.922 +0100,605190493.0725034,0,0.02000046,98.77663
2020-03-06 13:28:14.514 +0100,28578.499460875,0.002105712890625,-0.4011383056640625,-0.9233551025390625,28578.489412875,0.1478535781145666,-0.01351211763990932,0.4296479369864875,0.01384504325687885,0.04468423128128052,0.08455800265073776,0.004455775022506714,0.009657859802246094,-0.008542120456695557,XArbitraryZVertical,0.2130758631533116,0.009161981286655206,0.07072380315214692,0.9744295222185713,-0.01228366047143936,-0.4165507555007935,-0.909029483795166,28571.908848125,unknown,2,2020-03-06 13:28:07.922 +0100,605190493.0725034,0,0.02000046,98.77663
2020-03-06 13:28:14.529 +0100,28578.514533875,0.006103515625,-0.4042510986328125,-0.922515869140625,28578.504484875,0.1491446391305582,-0.01344572193496766,0.4300917143754789,0.05306632444262505,0.03792509436607361,0.06832483410835266,0.01197655685245991,0.01532569527626038,-0.01194590330123901,XArbitraryZVertical,0.2132837014598025,0.009348344416518106,0.07135491106512905,0.9743362068651437,-0.01222081854939461,-0.4169541597366333,-0.9088453650474548,28571.908848125,unknown,2,2020-03-06 13:28:07.922 +0100,605190493.0725034,0,0.02000046,98.77663
2020-03-06 13:28:14.544 +0100,28578.529605875,0.009124755859375,-0.4080047607421875,-0.907440185546875,28578.519557875,0.1501973958604437,-0.01341135390046141,0.4311439237202325,0.09002675861120224,0.02890311926603317,0.05657906457781792,0.01828708685934544,0.01365736126899719,-0.01410889625549316,XArbitraryZVertical,0.2137899588353124,0.009516665835969704,0.07185956660291437,0.9741865152090301,-0.01218369230628014,-0.4179103076457977,-0.9084065556526184,28571.908848125,unknown,2,2020-03-06 13:28:07.922 +0100,605190493.0725034,0,0.02000046,98.77663
2020-03-06 13:28:14.559 +0100,28578.544677875,0.006011962890625,-0.4127349853515625,-0.8996429443359375,28578.534629875,0.1510769780500399,-0.01342103585331604,0.4328481251356265,0.1359648704528809,0.02026526257395744,0.04520214349031448,0.02173478901386261,0.01560166478157043,-0.004446506500244141,XArbitraryZVertical,0.2146159146205228,0.009670002740164977,0.0722676111070599,0.9739732048388342,-0.01218291185796261,-0.4194579422473907,-0.9076930284500122,28571.908848125,unknown,2,2020-03-06 13:28:07.922 +0100,605190493.0725034,0,0.02000046,98.77663
2020-03-06 13:28:14.574 +0100,28578.559750875,0.002166748046875,-0.4212188720703125,-0.8920745849609375,28578.549702875,0.1518507151472654,-0.01339833115062229,0.4351396387074555,0.1619421392679214,0.02514603734016418,0.04569882154464722,0.01816123351454735,0.008800119161605835,0.007087230682373047,XArbitraryZVertical,0.2157268436456427,0.009850602449927776,0.07262065618104875,0.9736996793985675,-0.01214939262717962,-0.4215370416641235,-0.9067298173904419,28571.908848125,unknown,2,2020-03-06 13:28:07.922 +0100,605190493.0725034,0,0.02000046,98.77663
2020-03-06 13:28:14.589 +0100,28578.574822875,0.0038909912109375,-0.45037841796875,-0.8829345703125,28578.564774875,0.1526757023288665,-0.01329109086303777,0.4374935721851387,0.1446392089128494,0.03326419740915298,0.04950284957885742,0.0149837564677,0.006798356771469116,0.01222789287567139,XArbitraryZVertical,0.2168644153844332,0.01008111420595641,0.07300682154632415,0.9734157026925289,-0.01203893404453993,-0.4236704409122467,-0.9057363867759705,28571.908848125,unknown,2,2020-03-06 13:28:07.922 +0100,605190493.0725034,0,0.02000046,98.77663
2020-03-06 13:28:14.605 +0100,28578.589895875,0.0162811279296875,-0.4763031005859375,-0.8796539306640625,28578.579846875,0.1536901209023342,-0.01312734063175089,0.4390578665239175,0.05691727995872498,0.04165409877896309,0.07486652582883835,0.01577277295291424,-0.0252934992313385,0.02214044332504272,XArbitraryZVertical,0.217614338170073,0.01033052356575007,0.07350024231241779,0.9732085921328248,-0.01188190467655659,-0.4250868856906891,-0.9050745368003845,28571.908848125,unknown,2,2020-03-06 13:28:07.922 +0100,605190493.0725034,0,0.02000046,98.77663
2020-03-06 13:28:14.619 +0100,28578.604967875,0.034576416015625,-0.4586639404296875,-0.8816070556640625,28578.594919875,0.155213369070147,-0.01305611165300012,0.4388604882989559,-0.07877016812562943,0.04405321925878525,0.1082804799079895,0.02288103103637695,-0.04518657922744751,0.02488017082214355,XArbitraryZVertical,0.2175077390242103,0.01052331078097354,0.07425148100371104,0.9731733517209172,-0.0118185319006443,-0.4249082207679749,-0.9051592946052551,28571.908848125,unknown,2,2020-03-06 13:28:07.922 +0100,605190493.0725034,0,0.02000046,98.77663
2020-03-06 13:28:14.635 +0100,28578.620040875,0.0521087646484375,-0.4230194091796875,-0.8841552734375,28578.609991875,0.1570847264700992,-0.01331253930455337,0.4368923180267708,-0.1543064713478088,0.02158492989838123,0.1199911907315254,0.04663804173469543,-0.03554022312164307,0.02438408136367798,XArbitraryZVertical,0.2165499371518987,0.01052527258805941,0.07515728443734557,0.9733173698804004,-0.01206174958497286,-0.4231257438659668,-0.9059906601905823,28571.908848125,unknown,2,2020-03-06 13:28:07.922 +0100,605190493.0725034,0,0.02000046,98.77663
2020-03-06 13:28:14.650 +0100,28578.635112875,0.060516357421875,-0.4216156005859375,-0.886566162109375,28578.625064875,0.159144677792917,-0.01390413354243066,0.4346629497983503,-0.1174488589167595,0.0112643837928772,0.1372154653072357,0.05988240987062454,-0.01162132620811462,0.0225711464881897,XArbitraryZVertical,0.2154767764271704,0.01037224939798418,0.07612237853269625,0.973482161445548,-0.01261080987751484,-0.4211047291755676,-0.9069243669509888,28571.908848125,unknown,2,2020-03-06 13:28:07.922 +0100,605190493.0725034,0,0.02000046,98.77663
2020-03-06 13:28:14.665 +0100,28578.650184875,0.0740966796875,-0.464752197265625,-0.915435791015625,28578.640136875,0.1617715184166004,-0.0150105891827185,0.4337661559994647,0.006489011459052563,-0.01847044564783573,0.1878683418035507,0.0741361603140831,-0.001326560974121094,0.02072137594223022,XArbitraryZVertical,0.2150693922942896,0.01008064944041202,0.07729277315694073,0.9734830641178153,-0.01361993607133627,-0.4202911555767059,-0.907287061214447,28571.908848125,unknown,2,2020-03-06 13:28:07.922 +0100,605190493.0725034,0,0.02000046,98.77663
2020-03-06 13:28:14.680 +0100,28578.665257875,0.114044189453125,-0.5392608642578125,-0.9678802490234375,28578.655209875,0.165508476903367,-0.01714760296471594,0.4343742280738663,0.05801313370466232,-0.0661320835351944,0.2649062275886536,0.08000738173723221,-0.02361732721328735,0.00389397144317627,XArbitraryZVertical,0.2154304066851238,0.009467558909059919,0.07887378954322979,0.9732826183528828,-0.015554403886199,-0.4208428263664246,-0.9070001840591431,28571.908848125,unknown,2,2020-03-06 13:28:07.922 +0100,605190493.0725034,0,0.02000046,98.77663
2020-03-06 13:28:14.695 +0100,28578.680329875,0.170654296875,-0.5742950439453125,-1.00164794921875,28578.670281875,0.1707255417972539,-0.02099383154477493,0.4346068694628077,-0.05667670071125031,-0.1700398325920105,0.3685719072818756,0.133084774017334,-0.1182092130184174,-0.06104397773742676,XArbitraryZVertical,0.2156742905208311,0.008168080635346847,0.08099463415724532,0.9730661639939773,-0.01904075406491756,-0.4210538566112518,-0.9068357944488525,28571.908848125,unknown,2,2020-03-06 13:28:07.922 +0100,605190493.0725034,0,0.02000046,98.77663
2020-03-06 13:28:14.710 +0100,28578.695402875,0.2209320068359375,-0.5599365234375,-1.017349243164062,28578.685353875,0.17773129320884,-0.02754639384404274,0.4321695667732611,-0.2526232004165649,-0.3190389573574066,0.4818024039268494,0.1779950112104416,-0.1502826809883118,-0.09011805057525635,XArbitraryZVertical,0.2147346970145224,0.00562716792587343,0.08373527302729877,0.973060019145126,-0.02501059323549271,-0.4188418686389923,-0.9077146649360657,28571.908848125,unknown,2,2020-03-06 13:28:07.922 +0100,605190493.0725034,0,0.02000046,98.77663
2020-03-06 13:28:14.725 +0100,28578.710474875,0.289581298828125,-0.467071533203125,-1.07684326171875,28578.700426875,0.1861312284913786,-0.03723417776642286,0.4270912446709754,-0.3952280282974243,-0.5257630944252014,0.5487247705459595,0.2548135221004486,-0.1457136571407318,-0.1078051328659058,XArbitraryZVertical,0.2126633582284749,0.001576749662620948,0.08687656759583817,0.9732544475439976,-0.0338817685842514,-0.4142250716686249,-0.9095436334609985,28571.908848125,unknown,2,2020-03-06 13:28:07.922 +0100,605190493.0725034,0,0.02000046,98.77663
2020-03-06 13:28:14.741 +0100,28578.725547875,0.35919189453125,-0.365081787109375,-1.144882202148438,28578.715498875,0.1949215175937342,-0.0506757372638774,0.4195236315565394,-0.5591395497322083,-0.7880388498306274,0.5585466027259827,0.3098109662532806,-0.09708663821220398,-0.1371442079544067,XArbitraryZVertical,0.2095835112229464,-0.004406890871761154,0.08989265815237754,0.9736398916612267,-0.04626148566603661,-0.4073254466056824,-0.9121106863021851,28571.908848125,unknown,2,2020-03-06 13:28:07.922 +0100,605190493.0725034,0,0.02000046,98.77663
2020-03-06 13:28:14.755 +0100,28578.740619875,0.3775482177734375,-0.357818603515625,-1.205856323242188,28578.730571875,0.203713696936414,-0.06824109348524873,0.4092219314211986,-0.7484681606292725,-1.090268492698669,0.6039172410964966,0.4217493534088135,0.03281164169311523,-0.2295863628387451,XArbitraryZVertical,0.2054118897105028,-0.01258107156019008,0.09260626352963662,0.9742030929292166,-0.0625578910112381,-0.3978956341743469,-0.9152953624725342,28571.908848125,unknown,2,2020-03-06 13:28:07.922 +0100,605190493.0725034,0,0.02000046,98.77663
2020-03-06 13:28:14.770 +0100,28578.755692875,0.2839813232421875,-0.386749267578125,-1.226211547851562,28578.745643875,0.2132297212147061,-0.09130959307640156,0.3958308222155691,-0.9411141872406006,-1.477346420288086,0.6963819265365601,0.4636177122592926,0.03275895118713379,-0.2650808691978455,XArbitraryZVertical,0.2000674708339836,-0.02359217816873012,0.09530410505253248,0.9748505421393149,-0.08413219451904297,-0.3855749070644379,-0.9188328385353088,28571.908848125,unknown,2,2020-03-06 13:28:07.922 +0100,605190493.0725034,0,0.02000046,98.77663
2020-03-06 13:28:14.785 +0100,28578.770764875,0.140869140625,-0.4262542724609375,-1.2044677734375,28578.760716875,0.2232756775477394,-0.1192879663919417,0.3778065254836924,-1.347768068313599,-1.698856234550476,0.7870606184005737,0.3945931494235992,-0.01786878705024719,-0.3033403158187866,XArbitraryZVertical,0.1928036322498588,-0.03730093536616378,0.09810595408252221,0.9756078239775788,-0.1106125339865685,-0.3688825666904449,-0.9228708148002625,28571.908848125,unknown,2,2020-03-06 13:28:07.922 +0100,605190493.0725034,0,0.02000046,98.77663
2020-03-06 13:28:14.800 +0100,28578.785836875,0.043609619140625,-0.5079345703125,-1.180694580078125,28578.775788875,0.2338873052749476,-0.1494185213264401,0.3529142592958346,-1.69399094581604,-1.810404658317566,0.987456202507019,0.3230831623077393,-0.05564364790916443,-0.2863495945930481,XArbitraryZVertical,0.1824310587287534,-0.05255415027472156,0.1015320977330286,0.9765491464812194,-0.139688640832901,-0.3456339240074158,-0.9279139637947083,28571.908848125,unknown,2,2020-03-06 13:28:07.922 +0100,605190493.0725034,0,0.02000046,98.77663
2020-03-06 13:28:14.816 +0100,28578.800909875,-0.01043701171875,-0.4804229736328125,-1.203033447265625,28578.790861875,0.2472887053264888,-0.1822343001656336,0.3240159437868468,-1.783897399902344,-1.950558304786682,1.29932165145874,0.2154056280851364,-0.1895602941513062,-0.2484268546104431,XArbitraryZVertical,0.1704797406760315,-0.06930351742716438,0.106644847977987,0.977118497065692,-0.1717970669269562,-0.3183760941028595,-0.9322673678398132,28571.908848125,unknown,2,2020-03-06 13:28:07.922 +0100,605190493.0725034,0,0.02000046,98.77663
2020-03-06 13:28:14.831 +0100,28578.815981875,-0.0345001220703125,-0.4864654541015625,-1.198806762695312,28578.805933875,0.2643422072798384,-0.2179862309328415,0.2941882556211447,-1.60450541973114,-2.116188764572144,1.603460550308228,0.2080396413803101,-0.1989759504795074,-0.2559635639190674,XArbitraryZVertical,0.1586044487992195,-0.08746368191992226,0.1137860832751773,0.9768558750865906,-0.2069727778434753,-0.2899630665779114,-0.9343894720077515,28571.908848125,unknown,2,2020-03-06 13:28:07.922 +0100,605190493.0725034,0,0.02000046,98.77663
2020-03-06 13:28:14.846 +0100,28578.831054875,-0.077239990234375,-0.4506988525390625,-1.113510131835938,28578.821005875,0.2859949504501917,-0.256929790573894,0.2682601032580555,-1.050365209579468,-2.227913618087769,1.87006139755249,0.2105220556259155,-0.2214127480983734,-0.2662240862846375,XArbitraryZVertical,0.149365912126908,-0.1067646360154227,0.1231095267947712,0.9752615421090673,-0.2450236231088638,-0.2650541663169861,-0.9325822591781616,28571.908848125,unknown,2,2020-03-06 13:28:07.922 +0100,605190493.0725034,0,0.02000046,98.77663
2020-03-06 13:28:14.861 +0100,28578.846126875,-0.1082000732421875,-0.420440673828125,-1.043106079101562,28578.836078875,0.3126633043969564,-0.2974403692317914,0.250478882152876,-0.2571907639503479,-2.236661434173584,2.059531688690186,0.219275027513504,-0.2154055684804916,-0.2129058241844177,XArbitraryZVertical,0.1449161183824402,-0.1259856245342251,0.134488161469143,0.9721315989903864,-0.2839282155036926,-0.2478679269552231,-0.9262538552284241,28571.908848125,unknown,2,2020-03-06 13:28:07.922 +0100,605190493.0725034,0,0.02000046,98.77663
2020-03-06 13:28:14.893 +0100,28578.861199875,-0.148223876953125,-0.4481964111328125,-0.985504150390625,28578.851150875,0.345451325997069,-0.3387802627369841,0.2425333448096063,0.5622990727424622,-2.190864324569702,2.286201477050781,0.2144083082675934,-0.1802794337272644,-0.1275486350059509,XArbitraryZVertical,0.1462250171464215,-0.1443598792474451,0.1480744067153396,0.9673946617048947,-0.3226103186607361,-0.2401625961065292,-0.9155569672584534,28571.908848125,unknown,2,2020-03-06 13:28:07.922 +0100,605190493.0725034,0,0.02000046,98.77663
2020-03-06 13:28:14.911 +0100,28578.876271875,-0.1858062744140625,-0.501861572265625,-0.97967529296875,28578.866223875,0.3856190670365237,-0.3809680206576501,0.2423125555763253,1.184647917747498,-2.124665260314941,2.568636417388916,0.2264789938926697,-0.1954778283834457,-0.09789860248565674,XArbitraryZVertical,0.1524887340606409,-0.1617236027749875,0.1643131396172186,0.9610378416439979,-0.3609568178653717,-0.2399482578039169,-0.9011853337287903,28571.908848125,unknown,2,2020-03-06 13:28:07.922 +0100,605190493.0725034,0,0.02000046,98.77663
2020-03-06 13:28:14.912 +0100,28578.891343875,-0.2137451171875,-0.5557403564453125,-0.91876220703125,28578.881295875,0.4322686376497492,-0.4238571311102596,0.2443260315929729,1.349152088165283,-2.078488826751709,2.84027099609375,0.2132559716701508,-0.2599604725837708,-0.09523653984069824,XArbitraryZVertical,0.1611348698132108,-0.1783718684991288,0.183058774705879,0.9532620083318591,-0.3990645408630371,-0.2419024258852005,-0.8844380378723145,28571.908848125,unknown,2,2020-03-06 13:28:07.922 +0100,605190493.0725034,0,0.02000046,98.77663
2020-03-06 13:28:14.921 +0100,28578.906416875,-0.246490478515625,-0.548980712890625,-0.8212432861328125,28578.896368875,0.4815385405975816,-0.4663839815866251,0.2425755015907444,1.138497710227966,-1.991671442985535,2.963416814804077,0.2338247001171112,-0.3023698627948761,-0.06756585836410522,XArbitraryZVertical,0.1690175036801971,-0.1947006552332109,0.2031389683659792,0.9445947648368994,-0.4364945292472839,-0.2402035146951675,-0.8670494556427002,28571.908848125,unknown,2,2020-03-06 13:28:07.922 +0100,605190493.0725034,0,0.02000046,98.77663
2020-03-06 13:28:14.936 +0100,28578.921488875,-0.2680816650390625,-0.4328155517578125,-0.70343017578125,28578.911440875,0.5298884299341217,-0.5076208968509329,0.2346792074796972,0.8506907224655151,-1.973026871681213,3.036410331726074,0.2262817919254303,-0.3164509832859039,0.02870643138885498,XArbitraryZVertical,0.1746640935258003,-0.2109929450912112,0.2233533327065211,0.9354611658909679,-0.4727750420570374,-0.2325309962034225,-0.8499488830566406,28571.908848125,unknown,2,2020-03-06 13:28:07.922 +0100,605190493.0725034,0,0.02000046,98.77663
2020-03-06 13:28:14.951 +0100,28578.936561875,-0.3350830078125,-0.3445892333984375,-0.6484222412109375,28578.926512875,0.5760713869647004,-0.547367811882124,0.2204966226871167,0.5224581360816956,-1.895943760871887,3.05769681930542,0.2510020732879639,-0.2604587078094482,0.0876191258430481,XArbitraryZVertical,0.1778783924923602,-0.2274806881871583,0.2433238563148094,0.9259618352774148,-0.5078409910202026,-0.218714252114296,-0.8332236409187317,28571.908848125,unknown,2,2020-03-06 13:28:07.922 +0100,605190493.0725034,0,0.02000046,98.77663
2020-03-06 13:28:14.969 +0100,28578.951633875,-0.4263916015625,-0.3510589599609375,-0.6420440673828125,28578.941585875,0.6184599711124512,-0.5835436847231774,0.2003611634209961,0.1638853251934052,-1.724314212799072,3.013285636901855,0.2048759460449219,-0.145566999912262,0.1693994998931885,XArbitraryZVertical,0.178342954323308,-0.2434819320209586,0.2625976151097894,0.9164893354232141,-0.5399620532989502,-0.1990232765674591,-0.81782066822052,28571.908848125,unknown,2,2020-03-06 13:28:07.922 +0100,605190493.0725034,0,0.02000046,98.77663
2020-03-06 13:28:14.981 +0100,28578.966706875,-0.5051422119140625,-0.3724822998046875,-0.6795654296875,28578.956657875,0.655835554509369,-0.6150666712681807,0.1745156741038236,-0.2547489106655121,-1.534328579902649,2.949256181716919,0.1726611256599426,-0.1691431701183319,0.1682679057121277,XArbitraryZVertical,0.1757558993344014,-0.2587376488627779,0.2808194534955791,0.9073616309353432,-0.5682485699653625,-0.1736311912536621,-0.8043293952941895,28571.908848125,unknown,2,2020-03-06 13:28:07.922 +0100,605190493.0725034,0,0.02000046,98.77663
2020-03-06 13:28:14.996 +0100,28578.981778875,-0.51763916015625,-0.3074951171875,-0.6795654296875,28578.971730875,0.6876433805339653,-0.6421303219333008,0.1427791320347195,-0.7034321427345276,-1.39128589630127,2.906045198440552,0.08766281604766846,-0.2301885485649109,0.1131086349487305,XArbitraryZVertical,0.1698289891320122,-0.2735355453919248,0.2978552108676691,0.8986760442894436,-0.5928086042404175,-0.1422945111989975,-0.7926728129386902,28571.908848125,unknown,2,2020-03-06 13:28:07.922 +0100,605190493.0725034,0,0.02000046,98.77663
2020-03-06 13:28:15.011 +0100,28578.996850875,-0.5012664794921875,-0.1591339111328125,-0.6855010986328125,28578.986802875,0.7146968984655541,-0.6663412080600979,0.1057868200325485,-0.9746086597442627,-1.376520276069641,2.921681880950928,0.08963048458099365,-0.2362841069698334,0.07887560129165649,XArbitraryZVertical,0.1610414353493679,-0.2884763708788638,0.3138961780600584,0.8901214861674798,-0.6146585941314697,-0.1055896207690239,-0.7816940546035767,28571.908848125,unknown,2,2020-03-06 13:28:07.922 +0100,605190493.0725034,0,0.02000046,98.77663
2020-03-06 13:28:15.027 +0100,28579.011923875,-0.5753173828125,-0.065093994140625,-0.6669158935546875,28579.001875875,0.739867258500601,-0.6895503701204074,0.06642336788624331,-0.9564180970191956,-1.420979380607605,2.936564207077026,0.1335172653198242,-0.09275966882705688,0.0843309760093689,XArbitraryZVertical,0.1512696906260316,-0.3036480068637065,0.3296252376726322,0.8810576209841632,-0.634787380695343,-0.0663745328783989,-0.7698307633399963,28571.908848125,unknown,2,2020-03-06 13:28:07.922 +0100,605190493.0725034,0,0.02000046,98.77663
2020-03-06 13:28:15.042 +0100,28579.026995875,-0.7203369140625,-0.0568084716796875,-0.6417236328125,28579.016947875,0.7651538418179026,-0.7120603390399957,0.02859553995891171,-0.7164444327354431,-1.389120578765869,2.84555459022522,0.1136341691017151,-0.05888707935810089,0.08417809009552002,XArbitraryZVertical,0.1425388892307645,-0.3183218222440089,0.3452422450749784,0.871298792475469,-0.6531277298927307,-0.02859164215624332,-0.7567077875137329,28571.908848125,unknown,2,2020-03-06 13:28:07.922 +0100,605190493.0725034,0,0.02000046,98.77663
2020-03-06 13:28:15.057 +0100,28579.042068875,-0.8051605224609375,-0.111358642578125,-0.64111328125,28579.032019875,0.7903210226945109,-0.7321077497016044,-0.006157120455980626,-0.551181435585022,-1.236713171005249,2.714287042617798,-0.05191481113433838,-0.06296545267105103,0.1020309925079346,XArbitraryZVertical,0.1351350683145868,-0.331454345749273,0.3604671407879614,0.8613593864948732,-0.6684261560440063,0.006157081574201584,-0.7437530755996704,28571.908848125,unknown,2,2020-03-06 13:28:07.922 +0100,605190493.0725034,0,0.02000046,98.77663
2020-03-06 13:28:15.072 +0100,28579.057140875,-0.8082733154296875,-0.1424713134765625,-0.6091461181640625,28579.047092875,0.8158114674004493,-0.7491978685125267,-0.03862885352883837,-0.3276521563529968,-1.125253915786743,2.70167064666748,-0.108171820640564,-0.1296376287937164,0.09541440010070801,XArbitraryZVertical,0.1286214854583977,-0.3429459920221724,0.3755972806210028,0.8513348912952899,-0.6805435419082642,0.03861924633383751,-0.7316890954971313,28571.908848125,unknown,2,2020-03-06 13:28:07.922 +0100,605190493.0725034,0,0.02000046,98.77663
2020-03-06 13:28:15.087 +0100,28579.072213875,-0.780792236328125,-0.1666259765625,-0.5610504150390625,28579.062164875,0.8432359731396945,-0.7640107598148812,-0.0693937992855178,-0.1876834481954575,-1.026647567749023,2.745724678039551,-0.1181192398071289,-0.2118089646100998,0.1111847162246704,XArbitraryZVertical,0.1230939507906356,-0.3531051853667483,0.3913097983574656,0.8408574021950007,-0.690157949924469,0.0693381205201149,-0.720329225063324,28571.908848125,unknown,2,2020-03-06 13:28:07.922 +0100,605190493.0725034,0,0.02000046,98.77663
2020-03-06 13:28:15.102 +0100,28579.087285875,-0.7210845947265625,-0.093475341796875,-0.4857635498046875,28579.077237875,0.8699242186535618,-0.7769851037806961,-0.1009987282702036,-0.4254325032234192,-1.007409930229187,2.67957878112793,-0.0954279899597168,-0.2632105350494385,0.1240257024765015,XArbitraryZVertical,0.1170447257272237,-0.3627699561885564,0.4068187302500902,0.8301788876471431,-0.6975598931312561,0.1008271053433418,-0.7093969583511353,28571.908848125,unknown,2,2020-03-06 13:28:07.922 +0100,605190493.0725034,0,0.02000046,98.77663
2020-03-06 13:28:15.117 +0100,28579.102358875,-0.66888427734375,0.108673095703125,-0.49932861328125,28579.092309875,0.8908980467724411,-0.7901953963261361,-0.1353822213989271,-0.8201857209205627,-1.082921743392944,2.498432874679565,-0.01709878444671631,-0.2284435927867889,0.2115055322647095,XArbitraryZVertical,0.1091222492565704,-0.3734415826994573,0.4202520751752007,0.8197693711934296,-0.7039896249771118,0.1349690407514572,-0.6972674131393433,28571.908848125,unknown,2,2020-03-06 13:28:07.922 +0100,605190493.0725034,0,0.02000046,98.77663
2020-03-06 13:28:15.132 +0100,28579.117430875,-0.7538299560546875,0.33099365234375,-0.56817626953125,28579.107382875,0.9087636851130493,-0.8045421612995813,-0.1697909824384456,-0.5410506725311279,-1.171599268913269,2.419602632522583,0.03236818313598633,-0.1339106112718582,0.2029720544815063,XArbitraryZVertical,0.1011093749488671,-0.3847624040752899,0.4322453377015542,0.8092581415094651,-0.7101523280143738,0.1689763367176056,-0.6834695935249329,28571.908848125,unknown,2,2020-03-06 13:28:07.922 +0100,605190493.0725034,0,0.02000046,98.77663
2020-03-06 13:28:15.147 +0100,28579.132502875,-0.8950347900390625,0.48583984375,-0.608612060546875,28579.122454875,0.9333937602594463,-0.8170533936029517,-0.1961176214833092,0.5527040362358093,-1.059192538261414,2.287483692169189,-0.03867870569229126,0.1361319571733475,0.1030791997909546,XArbitraryZVertical,0.09764600267515101,-0.3934952154298225,0.4456615607809846,0.7981306238621579,-0.715155303478241,0.1948628574609756,-0.6712535619735718,28571.908848125,unknown,2,2020-03-06 13:28:07.922 +0100,605190493.0725034,0,0.02000046,98.77663
2020-03-06 13:28:15.162 +0100,28579.147575875,-0.9543914794921875,0.4545135498046875,-0.521148681640625,28579.137527875,0.9698882712394359,-0.8238579060425759,-0.2066177370373811,1.941475391387939,-0.7873337268829346,1.945971965789795,-0.1356596350669861,0.2457171976566315,0.05537354946136475,XArbitraryZVertical,0.1020413576316169,-0.39637744690405,0.4614158101818216,0.7871263636385911,-0.7181652784347534,0.2051507532596588,-0.6649449467658997,28571.908848125,unknown,2,2020-03-06 13:28:07.922 +0100,605190493.0725034,0,0.02000046,98.77663
2020-03-06 13:28:15.177 +0100,28579.162647875,-0.918426513671875,0.3404388427734375,-0.4554290771484375,28579.152599875,1.01532338795606,-0.8237267365123933,-0.2020741803898701,2.633467435836792,-0.4107377529144287,1.622986793518066,-0.2356412410736084,0.2538130879402161,0.1445189714431763,XArbitraryZVertical,0.1128424135780212,-0.3929806132906449,0.4784967107664183,0.7770931128379138,-0.7187545299530029,0.2007017433643341,-0.6656656265258789,28571.908848125,unknown,2,2020-03-06 13:28:07.922 +0100,605190493.0725034,0,0.02000046,98.77663
2020-03-06 13:28:15.192 +0100,28579.177720875,-0.817626953125,0.317901611328125,-0.5170745849609375,28579.167671875,1.058552538691861,-0.8191526842135244,-0.1921138510488254,2.267938613891602,-0.144763857126236,1.233372807502747,-0.2223606705665588,0.1781006902456284,0.2110973000526428,XArbitraryZVertical,0.1241992899135402,-0.3865688559254081,0.4939797147147028,0.7688452337386619,-0.7171270847320557,0.1909342855215073,-0.6702781319618225,28571.908848125,unknown,2,2020-03-06 13:28:07.922 +0100,605190493.0725034,0,0.02000046,98.77663
2020-03-06 13:28:15.209 +0100,28579.192792875,-0.780517578125,0.4495391845703125,-0.617919921875,28579.182744875,1.092706125549214,-0.8146222985692505,-0.1828436463629785,1.912667989730835,-0.1144060343503952,0.945115864276886,-0.1022910475730896,0.1360762119293213,0.1576329469680786,XArbitraryZVertical,0.1333430211177797,-0.3806137614772788,0.5059764158907283,0.7624569425850152,-0.7153400778770447,0.1818265467882156,-0.6747056245803833,28571.908848125,unknown,2,2020-03-06 13:28:07.922 +0100,605190493.0725034,0,0.02000046,98.77663
2020-03-06 13:28:15.222 +0100,28579.207865875,-0.8490447998046875,0.638458251953125,-0.6595611572265625,28579.197816875,1.124150894711158,-0.8102952423599267,-0.1712109476980439,2.201521635055542,-0.01974948868155479,0.7581449747085571,-0.06492984294891357,0.2162219882011414,0.08931893110275269,XArbitraryZVertical,0.1428030042488155,-0.3741710616997188,0.5165208107822751,0.7568417944770901,-0.7138980627059937,0.170375719666481,-0.6792066097259521,28571.908848125,unknown,2,2020-03-06 13:28:07.922 +0100,605190493.0725034,0,0.02000046,98.77663
2020-03-06 13:28:15.237 +0100,28579.222937875,-0.870452880859375,0.6107330322265625,-0.71746826171875,28579.212889875,1.158006287113875,-0.8034546950653437,-0.1526629079912198,2.701730966567993,0.2131141275167465,0.5103825926780701,-0.1376611590385437,0.4863885641098022,0.02659082412719727,XArbitraryZVertical,0.1545864991969064,-0.3647299001311998,0.5271172375552027,0.7518128365064559,-0.7113876342773438,0.1520706117153168,-0.6861502528190613,28571.908848125,unknown,2,2020-03-06 13:28:07.922 +0100,605190493.0725034,0,0.02000046,98.77663
2020-03-06 13:28:15.252 +0100,28579.238009875,-0.8141326904296875,0.3850860595703125,-0.70428466796875,28579.227961875,1.193502575621833,-0.7937387376246166,-0.1262767956252911,3.021872520446777,0.3966623544692993,0.2573737502098083,-0.1700966358184814,0.5299736261367798,-0.004256486892700195,XArbitraryZVertical,0.1686478669777669,-0.3517913341194435,0.5374212760335507,0.7476490358876292,-0.7073028087615967,0.1259414702653885,-0.6956015229225159,28571.908848125,unknown,2,2020-03-06 13:28:07.922 +0100,605190493.0725034,0,0.02000046,98.77663
2020-03-06 13:28:15.267 +0100,28579.253082875,-0.7578277587890625,0.19879150390625,-0.6821441650390625,28579.243034875,1.227237468034316,-0.7833694144780941,-0.09700003182185897,2.80357813835144,0.4566125273704529,0.1314637213945389,-0.1117828488349915,0.2882386445999146,0.0009260177612304688,XArbitraryZVertical,0.1829275031298173,-0.3375395797847625,0.5467258953598816,0.7441069884130708,-0.7023535370826721,0.09684798866510391,-0.7052091360092163,28571.908848125,unknown,2,2020-03-06 13:28:07.922 +0100,605190493.0725034,0,0.02000046,98.77663
2020-03-06 13:28:15.283 +0100,28579.268154875,-0.7401275634765625,0.0953521728515625,-0.6389312744140625,28579.258106875,1.255333417466629,-0.774605160840126,-0.06984835598640329,2.360724449157715,0.4014203250408173,-0.02281399071216583,-0.07769644260406494,0.1804835498332977,0.01303541660308838,XArbitraryZVertical,0.1954988673115154,-0.324504131578942,0.5541030392797132,0.7412469474187405,-0.6977284550666809,0.06979157030582428,-0.7129545211791992,28571.908848125,unknown,2,2020-03-06 13:28:07.922 +0100,605190493.0725034,0,0.02000046,98.77663
2020-03-06 13:28:15.298 +0100,28579.283227875,-0.7150421142578125,0.023895263671875,-0.63140869140625,28579.273178875,1.277154220495129,-0.7673741399148093,-0.04526146276433885,2.047243595123291,0.4054430425167084,-0.1639263778924942,-0.04659444093704224,0.05010649561882019,0.08006918430328369,XArbitraryZVertical,0.2062221853673449,-0.3130062239574544,0.559375059937802,0.7393233163930396,-0.6935366988182068,0.04524600878357887,-0.7189990282058716,28571.908848125,unknown,2,2020-03-06 13:28:07.922 +0100,605190493.0725034,0,0.02000046,98.77663
2020-03-06 13:28:15.313 +0100,28579.298299875,-0.672882080078125,0.03851318359375,-0.560699462890625,28579.288251875,1.297021895929188,-0.7603140780062079,-0.02083732459844266,2.162947654724121,0.4458193778991699,-0.1557329595088959,-0.03907740116119385,0.02265191078186035,0.08995753526687622,XArbitraryZVertical,0.2164014509088533,-0.301561378918314,0.5639292076379799,0.7377092918516636,-0.6889994740486145,0.02083581686019897,-0.7244622707366943,28571.908848125,unknown,2,2020-03-06 13:28:07.922 +0100,605190493.0725034,0,0.02000046,98.77663
2020-03-06 13:28:15.328 +0100,28579.313372875,-0.6468048095703125,0.0430450439453125,-0.474761962890625,28579.303323875,1.31915129811771,-0.7526578973480033,0.005420608977841201,2.380339860916138,0.5646209120750427,-0.1157351434230804,0.01068520545959473,0.04393386840820312,0.1691658496856689,XArbitraryZVertical,0.2271937326299001,-0.288879024720482,0.5691099037237934,0.7355581653955807,-0.6835710406303406,-0.005420582368969917,-0.7298638224601746,28571.908848125,unknown,2,2020-03-06 13:28:07.922 +0100,605190493.0725034,0,0.02000046,98.77663
2020-03-06 13:28:15.343 +0100,28579.328444875,-0.58575439453125,-0.0319976806640625,-0.4950103759765625,28579.318396875,1.342848698669694,-0.7431142874978283,0.03413108349202069,2.538517713546753,0.7731868028640747,-0.1691962331533432,0.01937210559844971,0.08591264486312866,0.2377076148986816,XArbitraryZVertical,0.2382805070970781,-0.2743251922503256,0.5747163225672871,0.7332592849602253,-0.6761903762817383,-0.034124456346035,-0.735936164855957,28571.908848125,unknown,2,2020-03-06 13:28:07.922 +0100,605190493.0725034,0,0.02000046,98.77663
2020-03-06 13:28:15.358 +0100,28579.343516875,-0.4597015380859375,-0.0997161865234375,-0.5279998779296875,28579.333468875,1.367381548255264,-0.7315029894191885,0.06463662485537819,2.640426158905029,0.9071520566940308,-0.1258998960256577,0.08083593845367432,0.03259369730949402,0.2476082444190979,XArbitraryZVertical,0.2491888478877757,-0.2580625750768898,0.5806103803356171,0.7308899446920379,-0.6665939688682556,-0.06459162384271622,-0.7426172494888306,28571.908848125,unknown,2,2020-03-06 13:28:07.922 +0100,605190493.0725034,0,0.02000046,98.77663
2020-03-06 13:28:15.373 +0100,28579.358589875,-0.39300537109375,-0.10107421875,-0.5137481689453125,28579.348541875,1.393152530620971,-0.7196943911609409,0.09538643608010587,2.635105848312378,0.9289442896842957,-0.04610902816057205,0.1545984745025635,0.009258091449737549,0.2246795296669006,XArbitraryZVertical,0.2598955402370651,-0.2411637734886685,0.5869416447395031,0.727869317268119,-0.656158447265625,-0.09524185210466385,-0.7485886812210083,28571.908848125,unknown,2,2020-03-06 13:28:07.922 +0100,605190493.0725034,0,0.02000046,98.77663
2020-03-06 13:28:15.401 +0100,28579.373661875,-0.37164306640625,-0.1455841064453125,-0.5361328125,28579.363613875,1.417447930020332,-0.7078884862918408,0.1244925470522935,2.363343238830566,1.00389289855957,-0.067641980946064,0.2521898150444031,0.02309638261795044,0.2401099801063538,XArbitraryZVertical,0.2694522548945959,-0.2246488012356025,0.5929692326916629,0.7247868058551556,-0.6451987624168396,-0.1241712272167206,-0.7538567781448364,28571.908848125,unknown,2,2020-03-06 13:28:07.922 +0100,605190493.0725034,0,0.02000046,98.77663
2020-03-06 13:28:15.403 +0100,28579.388734875,-0.3217315673828125,-0.1524200439453125,-0.6143341064453125,28579.378685875,1.437811106907579,-0.6948270179959107,0.1500268555902779,1.911774396896362,1.086060643196106,-0.0757257416844368,0.2554782629013062,0.020527184009552,0.2325443029403687,XArbitraryZVertical,0.2766152701807493,-0.2090840449698551,0.5982741086108512,0.722382078631626,-0.6330606341362,-0.1494646817445755,-0.7595357298851013,28571.908848125,unknown,2,2020-03-06 13:28:07.922 +0100,605190493.0725034,0,0.02000046,98.77663
2020-03-06 13:28:15.418 +0100,28579.403806875,-0.2357025146484375,-0.064300537109375,-0.7306365966796875,28579.393758875,1.453149636139832,-0.6813457608261829,0.1703668904208597,1.48876690864563,1.003191113471985,-0.08359644562005997,0.2989853024482727,0.01712299883365631,0.1511480808258057,XArbitraryZVertical,0.2810955258085471,-0.1955629913428722,0.6026169669936152,0.720828073508007,-0.6207204461097717,-0.1695439368486404,-0.7654808163642883,28571.908848125,unknown,2,2020-03-06 13:28:07.922 +0100,605190493.0725034,0,0.02000046,98.77663
2020-03-06 13:28:15.433 +0100,28579.418879875,-0.2148895263671875,0.0486297607421875,-0.7223968505859375,28579.408830875,1.465153967593921,-0.6696613302174232,0.1870514508676499,1.215534448623657,0.8226686716079712,-0.09036028385162354,0.3471180200576782,0.08441439270973206,0.06193745136260986,XArbitraryZVertical,0.2843842932050063,-0.1842487821942402,0.6060711565307135,0.7196219082424732,-0.6098931431770325,-0.185962587594986,-0.7703559398651123,28571.908848125,unknown,2,2020-03-06 13:28:07.922 +0100,605190493.0725034,0,0.02000046,98.77663
2020-03-06 13:28:15.449 +0100,28579.43395254167,-0.2242584228515625,-0.012420654296875,-0.911712646484375,28579.423903875,1.473039905748922,-0.6593002686323242,0.2005623481880823,0.9275394678115845,0.6660158038139343,-0.2214056700468063,0.3853917121887207,0.2478490471839905,0.05218136310577393,XArbitraryZVertical,0.2865209899256729,-0.174977999662875,0.6083449176313643,0.7191696351957488,-0.6002849340438843,-0.1992204338312149,-0.7745768427848816,28571.908848125,unknown,2,2020-03-06 13:28:07.922 +0100,605190493.0725034,0,0.02000046,98.77663
2020-03-06 13:28:15.463 +0100,28579.44902554167,-0.3093109130859375,0.0105438232421875,-1.024185180664062,28579.43897654167,1.479076789350771,-0.6524269079541908,0.2143815505390874,1.009282469749451,0.4076730310916901,-0.2511835098266602,0.3844443559646606,0.2135201990604401,-0.03780043125152588,XArbitraryZVertical,0.2896029895800173,-0.1670892947447143,0.6094119784571486,0.7189076552646674,-0.5932186245918274,-0.2127431780099869,-0.7764225602149963,28571.908848125,unknown,2,2020-03-06 13:28:07.922 +0100,605190493.0725034,0,0.02000046,98.77663
2020-03-06 13:28:15.479 +0100,28579.46409754167,-0.382293701171875,0.0130157470703125,-1.1300048828125,28579.45404954167,1.485161366949515,-0.6493297659027305,0.2290246653716956,0.9540244936943054,0.1706261187791824,-0.2975890934467316,0.2795498967170715,0.2375703752040863,-0.248492419719696,XArbitraryZVertical,0.2940686203332805,-0.1602431991821519,0.6098156721350096,0.71831090418487,-0.5888642072677612,-0.2270277589559555,-0.7756915092468262,28571.908848125,unknown,2,2020-03-06 13:28:07.922 +0100,605190493.0725034,0,0.02000046,98.77663
2020-03-06 13:28:15.494 +0100,28579.47916954167,-0.4695892333984375,-0.0608367919921875,-1.1156005859375,28579.46912154167,1.489497201287825,-0.649860964626606,0.2418720484892302,0.7396841645240784,-0.09358042478561401,-0.2598906755447388,0.2299764156341553,0.2668019831180573,-0.3407604694366455,XArbitraryZVertical,0.2988593789613231,-0.1555211349504778,0.6093112741148204,0.7177993943160172,-0.5874627232551575,-0.2395205944776535,-0.7729924917221069,28571.908848125,unknown,2,2020-03-06 13:28:07.922 +0100,605190493.0725034,0,0.02000046,98.77663
2020-03-06 13:28:15.509 +0100,28579.49424254167,-0.595947265625,-0.0825653076171875,-1.068954467773438,28579.48419454167,1.492964400214467,-0.6534645162280796,0.2516149191252643,0.5620266795158386,-0.2725104093551636,-0.2052123993635178,0.1192049980163574,0.1881301403045654,-0.346618115901947,XArbitraryZVertical,0.3034585640243471,-0.1530435500174588,0.6084902437733257,0.7170985051618383,-0.5887977480888367,-0.2489683479070663,-0.7689811587333679,28571.908848125,unknown,2,2020-03-06 13:28:07.922 +0100,605190493.0725034,0,0.02000046,98.77663
2020-03-06 13:28:15.524 +0100,28579.50931454167,-0.654876708984375,-0.106353759765625,-1.054702758789062,28579.49926654167,1.493047528550189,-0.6587390781888315,0.2587926491301822,0.1783482432365417,-0.4406584799289703,-0.3754526376724243,0.03652679920196533,0.1779703199863434,-0.3150345087051392,XArbitraryZVertical,0.3074409705912011,-0.1525256654885037,0.6065789599530745,0.7171316679925496,-0.5917364358901978,-0.2559135854244232,-0.7644319534301758,28571.908848125,unknown,2,2020-03-06 13:28:07.922 +0100,605190493.0725034,0,0.02000046,98.77663
2020-03-06 13:28:15.539 +0100,28579.52438754167,-0.6829681396484375,-0.0157470703125,-1.036026000976562,28579.51433854167,1.487911112704492,-0.6654056977627318,0.262937569899367,-0.106805719435215,-0.6034961342811584,-0.4739701449871063,-0.05872070789337158,0.1535630822181702,-0.2950722575187683,XArbitraryZVertical,0.310431718428514,-0.1543294649919957,0.603042043076619,0.7184391316640358,-0.5961593985557556,-0.2599182724952698,-0.7596291303634644,28571.908848125,unknown,2,2020-03-06 13:28:07.922 +0100,605190493.0725034,0,0.02000046,98.77663
2020-03-06 13:28:15.554 +0100,28579.53945954167,-0.7388763427734375,-0.006439208984375,-0.987701416015625,28579.52941154167,1.479864145696844,-0.6730717621083968,0.2670395775652616,-0.08139842748641968,-0.6741719245910645,-0.7069698572158813,-0.06908762454986572,0.2112633585929871,-0.2884045243263245,XArbitraryZVertical,0.3134632345944037,-0.156979229861442,0.5982863950873438,0.7205217841613022,-0.6012954711914062,-0.2638770937919617,-0.7541966438293457,28571.908848125,unknown,2,2020-03-06 13:28:07.922 +0100,605190493.0725034,0,0.02000046,98.77663
2020-03-06 13:28:15.569 +0100,28579.55453254167,-0.71820068359375,-0.1818084716796875,-0.9882965087890625,28579.54448354167,1.469794430684923,-0.6803233954569823,0.2751070474005428,0.1506088227033615,-0.659687876701355,-0.9125853180885315,-0.1334899067878723,0.2652092576026917,-0.2395627498626709,XArbitraryZVertical,0.3174962666690677,-0.1585165854729244,0.5921797000638481,0.7234582211253621,-0.6053899526596069,-0.271649956703186,-0.7481372356414795,28571.908848125,unknown,2,2020-03-06 13:28:07.922 +0100,605190493.0725034,0,0.02000046,98.77663
2020-03-06 13:28:15.584 +0100,28579.56960454167,-0.6902618408203125,-0.314422607421875,-0.9515228271484375,28579.55955654167,1.461348811006556,-0.6881060658078124,0.2867119228577828,0.3138514757156372,-0.7014732360839844,-0.8962953686714172,-0.1217181086540222,0.1546702980995178,-0.2531449198722839,XArbitraryZVertical,0.3229591496231761,-0.1588660164218917,0.5859285293311222,0.7260487409837331,-0.6091508865356445,-0.2827998995780945,-0.740917980670929,28571.908848125,unknown,2,2020-03-06 13:28:07.922 +0100,605190493.0725034,0,0.02000046,98.77663
2020-03-06 13:28:15.599 +0100,28579.58467654167,-0.6874542236328125,-0.367828369140625,-0.8774871826171875,28579.57462854167,1.453664778302258,-0.6973293936922249,0.2986479629983145,0.2643880546092987,-0.8081594705581665,-0.8616790175437927,-0.07651817798614502,-0.02019590139389038,-0.2188930511474609,XArbitraryZVertical,0.3289812787653981,-0.1595530881320612,0.5795911076544144,0.7282775947388733,-0.6137471199035645,-0.2942282855510712,-0.7326282858848572,28571.908848125,unknown,2,2020-03-06 13:28:07.922 +0100,605190493.0725034,0,0.02000046,98.77663
2020-03-06 13:28:15.614 +0100,28579.59974954167,-0.675872802734375,-0.41009521484375,-0.7768707275390625,28579.58970154167,1.445634224012995,-0.7076211404351218,0.3091665348382261,0.1518375128507614,-0.8626068830490112,-0.8087088465690613,-0.06661659479141235,-0.05338764190673828,-0.1763401627540588,XArbitraryZVertical,0.3347758290160032,-0.1611973987314358,0.5731201843630762,0.7303928735279842,-0.6192084550857544,-0.3042647838592529,-0.7238810658454895,28571.908848125,unknown,2,2020-03-06 13:28:07.922 +0100,605190493.0725034,0,0.02000046,98.77663
2020-03-06 13:28:15.629 +0100,28579.61482154167,-0.6461029052734375,-0.4405364990234375,-0.72991943359375,28579.60477354167,1.437222652439252,-0.7179544785905828,0.3180030996137704,0.04001723974943161,-0.8498575091362,-0.7602989673614502,-0.05101418495178223,-0.09742647409439087,-0.06147801876068115,XArbitraryZVertical,0.3399516334676084,-0.1635155406707621,0.566730189215783,0.7324700688254221,-0.6248621940612793,-0.3126704096794128,-0.7153910994529724,28571.908848125,unknown,2,2020-03-06 13:28:07.922 +0100,605190493.0725034,0,0.02000046,98.77663
2020-03-06 13:28:15.644 +0100,28579.62989454167,-0.5885772705078125,-0.4090423583984375,-0.6573944091796875,28579.61984654167,1.42852223605663,-0.7281436243826223,0.3251691991156112,-0.04054311662912369,-0.8693055510520935,-0.690976083278656,-0.03150147199630737,-0.117849588394165,-0.04477691650390625,XArbitraryZVertical,0.3444670545058948,-0.1664155206761633,0.5605001430646651,0.7344983542338942,-0.6306115388870239,-0.3194691240787506,-0.7072966694831848,28571.908848125,unknown,2,2020-03-06 13:28:07.922 +0100,605190495.6401125,0,0.02000046,98.77663
2020-03-06 13:28:15.659 +0100,28579.64496654167,-0.5295257568359375,-0.4099884033203125,-0.6749267578125,28579.63491854167,1.419616552606612,-0.7382725461601461,0.3307945919093891,-0.1836233884096146,-0.795570433139801,-0.6499086618423462,0.0479426383972168,-0.08424949645996094,0.04214006662368774,XArbitraryZVertical,0.3483952421277525,-0.1698657429161212,0.5544375748186597,0.7364545818302737,-0.6365236639976501,-0.3247946500778198,-0.6995327472686768,28571.908848125,unknown,2,2020-03-06 13:28:07.922 +0100,605190495.6401125,0,0.02000046,98.77663
2020-03-06 13:28:15.675 +0100,28579.66003954167,-0.4816741943359375,-0.3498992919921875,-0.6649932861328125,28579.64999054167,1.410021739202044,-0.7474495490043022,0.3353067247771674,-0.1866075098514557,-0.8113082051277161,-0.6179529428482056,0.08974003791809082,-0.06446722149848938,0.0325934886932373,XArbitraryZVertical,0.3515894821559732,-0.1734784838295175,0.5484532487136274,0.7385722993440589,-0.6419135928153992,-0.329058825969696,-0.6925801038742065,28571.908848125,unknown,2,2020-03-06 13:28:07.922 +0100,605190495.6401125,0,0.02000046,98.77663
2020-03-06 13:28:15.690 +0100,28579.67511154167,-0.44464111328125,-0.2638702392578125,-0.601837158203125,28579.66506354167,1.400433616287067,-0.7559458600728383,0.3391778401036959,-0.2393498569726944,-0.7564640045166016,-0.632043182849884,0.1652181148529053,-0.01718926429748535,0.02117770910263062,XArbitraryZVertical,0.3543443713659984,-0.1770746948055754,0.5426782053240032,0.7406651297826232,-0.6468960642814636,-0.3327118754386902,-0.6861692667007446,28571.908848125,unknown,2,2020-03-06 13:28:07.922 +0100,605190495.6401125,0,0.02000046,98.77663
2020-03-06 13:28:15.705 +0100,28579.69018454167,-0.433197021484375,-0.304931640625,-0.56915283203125,28579.68013554167,1.390356312462126,-0.7634574969877841,0.3432340873197947,-0.2517956495285034,-0.6608773469924927,-0.6377541422843933,0.1967593431472778,0.04631024599075317,0.05070376396179199,XArbitraryZVertical,0.3568115333818417,-0.1803620784577749,0.5368316490826095,0.7429446474283427,-0.6510935425758362,-0.3365342915058136,-0.6803101301193237,28571.908848125,unknown,2,2020-03-06 13:28:07.922 +0100,605190495.6401125,0,0.02000046,98.77663
2020-03-06 13:28:15.720 +0100,28579.70525654167,-0.4447479248046875,-0.388397216796875,-0.5677032470703125,28579.69520854167,1.380769903604648,-0.7698736465884656,0.3470751818458628,-0.1868986636400223,-0.6229193210601807,-0.5642338395118713,0.2213398218154907,0.03521537780761719,0.1060343980789185,XArbitraryZVertical,0.3589249731954758,-0.1832487709334671,0.5313773587601474,0.7451381013792063,-0.654540479183197,-0.3401488363742828,-0.67518550157547,28571.908848125,unknown,2,2020-03-06 13:28:07.922 +0100,605190495.6401125,0,0.02000046,98.77663
2020-03-06 13:28:15.735 +0100,28579.72032854167,-0.4652862548828125,-0.3619384765625,-0.6156768798828125,28579.71028054167,1.373208426675231,-0.7765543037903457,0.3511585356300957,-0.09312209486961365,-0.6089180111885071,-0.504833459854126,0.2197299599647522,-0.0358225405216217,0.1061282753944397,XArbitraryZVertical,0.3613473176168859,-0.1858156043122844,0.5265600749666257,0.7467497399492617,-0.6580576300621033,-0.3439858853816986,-0.6698013544082642,28571.908848125,unknown,2,2020-03-06 13:28:07.922 +0100,605190495.6401125,0,0.02000046,98.77663
2020-03-06 13:28:15.750 +0100,28579.73540154167,-0.5360565185546875,-0.311126708984375,-0.676177978515625,28579.72535354167,1.366974382408768,-0.7828938070667772,0.3560886177384306,0.02045044116675854,-0.5370101928710938,-0.4966170191764832,0.1957963705062866,-0.01332947611808777,0.04873085021972656,XArbitraryZVertical,0.3640609994008731,-0.187767521261062,0.522112757955586,0.7480649332504434,-0.66108638048172,-0.348610907793045,-0.664405882358551,28571.908848125,unknown,2,2020-03-06 13:28:07.922 +0100,605190495.6401125,0,0.02000046,98.77663
2020-03-06 13:28:15.765 +0100,28579.75047354167,-0.6598052978515625,-0.208953857421875,-0.72979736328125,28579.74042554167,1.362476537918217,-0.7894867628956838,0.3613884955093054,0.06212161108851433,-0.5315471291542053,-0.3839049637317657,0.1623574495315552,0.01986169815063477,-0.01511883735656738,XArbitraryZVertical,0.3671065709246438,-0.1893976162127772,0.5181737942799197,0.7489039807600919,-0.6641312837600708,-0.3535733819007874,-0.6587226390838623,28571.908848125,unknown,2,2020-03-06 13:28:07.922 +0100,605190495.6401125,0,0.02000046,98.77663
2020-03-06 13:28:15.780 +0100,28579.76554654167,-0.7057037353515625,-0.106475830078125,-0.8780517578125,28579.75549754167,1.358673325114021,-0.7954975720373803,0.3652405085300219,-0.05175409466028214,-0.4584463238716125,-0.3419170379638672,0.007291853427886963,0.1482180953025818,-0.07603472471237183,XArbitraryZVertical,0.369571145388203,-0.1911461270433172,0.5148717957909733,0.7495247602194164,-0.6671010255813599,-0.3571739494800568,-0.6537606716156006,28571.908848125,unknown,2,2020-03-06 13:28:07.922 +0100,605190495.6401125,0,0.02000046,98.77663
2020-03-06 13:28:15.795 +0100,28579.78061854167,-0.7705230712890625,0.0399932861328125,-0.8661956787109375,28579.77057054167,1.353074245280114,-0.8012811807601656,0.3684693249388079,-0.1232093125581741,-0.5973162055015564,-0.4425289928913116,-0.02347683906555176,0.2140524387359619,-0.182317852973938,XArbitraryZVertical,0.3715836599296099,-0.1933461676279727,0.5110496544201164,0.7505805059946626,-0.6700391173362732,-0.3601879179477692,-0.6490857005119324,28571.908848125,unknown,2,2020-03-06 13:28:07.922 +0100,605190495.6401125,0,0.02000046,98.77663
2020-03-06 13:28:15.810 +0100,28579.79569154167,-0.8717193603515625,0.03857421875,-0.8233489990234375,28579.78564254167,1.346589822173729,-0.8090048712061123,0.3728457877303292,-0.04479272291064262,-0.7124695777893066,-0.55013507604599,-0.09664177894592285,0.4042584002017975,-0.2233965992927551,XArbitraryZVertical,0.3743630255539384,-0.1960964759422226,0.5062841860716321,0.7517145402218883,-0.6738852858543396,-0.3642671704292297,-0.6427969932556152,28571.908848125,unknown,2,2020-03-06 13:28:07.922 +0100,605190495.6401125,0,0.02000046,98.77663
2020-03-06 13:28:15.825 +0100,28579.81076354167,-0.82891845703125,-0.1896209716796875,-0.73614501953125,28579.80071554167,1.33934098051177,-0.816891059500349,0.3794524396529567,-0.01540759485214949,-0.667883038520813,-0.6803645491600037,-0.1709080338478088,0.4343441128730774,-0.2024226188659668,XArbitraryZVertical,0.377815141313634,-0.1983808614565988,0.5007167379046711,0.7531158591831797,-0.6771642565727234,-0.3704119026660919,-0.6358014941215515,28571.908848125,unknown,2,2020-03-06 13:28:07.922 +0100,605190495.6401125,0,0.02000046,98.77663
2020-03-06 13:28:15.840 +0100,28579.82583554167,-0.767791748046875,-0.4602203369140625,-0.6339111328125,28579.81578754167,1.331186511423987,-0.8236613224273976,0.3863454816377384,-0.1390501707792282,-0.6390423178672791,-0.6610946655273438,-0.1493585705757141,0.1871826648712158,-0.106690526008606,XArbitraryZVertical,0.3809622907257018,-0.200353571902509,0.4949264809884393,0.7548337162162025,-0.6795639395713806,-0.3768057823181152,-0.6294523477554321,28571.908848125,unknown,2,2020-03-06 13:28:07.922 +0100,605190495.6401125,0,0.02000046,98.77663
2020-03-06 13:28:15.856 +0100,28579.84090854167,-0.7400970458984375,-0.55908203125,-0.5468292236328125,28579.83086054167,1.320208456253341,-0.8291648864895852,0.3898656307606153,-0.5503714084625244,-0.6598072648048401,-0.5853613018989563,-0.09851658344268799,-0.004139125347137451,-0.02074837684631348,XArbitraryZVertical,0.3823707072685531,-0.2034481704486822,0.4889885851651301,0.7571602471133977,-0.6820355653762817,-0.3800641298294067,-0.6248029470443726,28571.908848125,unknown,2,2020-03-06 13:28:07.922 +0100,605190495.6401125,0,0.02000046,98.77663
2020-03-06 13:28:15.870 +0100,28579.85598054167,-0.720947265625,-0.4966583251953125,-0.5646820068359375,28579.84593254167,1.306041066541004,-0.8330227779940977,0.3882129760186787,-0.818278431892395,-0.5558608174324036,-0.4153864979743958,-0.05519634485244751,-0.1805492341518402,0.07576167583465576,XArbitraryZVertical,0.3813025052162406,-0.2081202262705008,0.4832264614460187,0.7601226943665392,-0.6849047541618347,-0.3785349726676941,-0.6225887537002563,28571.908848125,unknown,2,2020-03-06 13:28:07.922 +0100,605190495.6401125,0,0.02000046,98.77663
2020-03-06 13:28:15.900 +0100,28579.87105354167,-0.7254638671875,-0.447418212890625,-0.573638916015625,28579.86100554167,1.293066364683898,-0.8360784223140441,0.3844239603376679,-0.6367145776748657,-0.4904531538486481,-0.2867530584335327,-0.03789466619491577,-0.152915894985199,0.05463409423828125,XArbitraryZVertical,0.379407324325464,-0.212896789517815,0.4785067922416841,0.7627295051590125,-0.687863290309906,-0.37502521276474,-0.6214500665664673,28571.908848125,unknown,2,2020-03-06 13:28:07.922 +0100,605190495.6401125,0,0.02000046,98.77663
2020-03-06 13:28:15.901 +0100,28579.88612554167,-0.7186126708984375,-0.4195556640625,-0.59765625,28579.87607754167,1.28594207434019,-0.8399311795544521,0.382757404601099,-0.1577554494142532,-0.352379709482193,-0.1461575925350189,-0.03475105762481689,-0.07394060492515564,0.04557490348815918,XArbitraryZVertical,0.3790034550825989,-0.2162187850726489,0.4754103936220846,0.7639311302787086,-0.6907168626785278,-0.3734797537326813,-0.6192116141319275,28571.908848125,unknown,2,2020-03-06 13:28:07.922 +0100,605190495.6401125,0,0.02000046,98.77663
2020-03-06 13:28:15.916 +0100,28579.90119854167,-0.6792755126953125,-0.46978759765625,-0.6326751708984375,28579.89114954167,1.284722925189939,-0.8438084796879507,0.3838523558178171,0.07777173072099686,-0.2577629387378693,-0.05975872650742531,-0.0316542387008667,-0.04745817184448242,0.03828656673431396,XArbitraryZVertical,0.3801586301221892,-0.2176029866309762,0.4739760257685877,0.7638554098330198,-0.692806601524353,-0.374495267868042,-0.6162567138671875,28571.908848125,unknown,2,2020-03-06 13:28:07.922 +0100,605190495.6401125,0,0.02000046,98.77663
2020-03-06 13:28:15.931 +0100,28579.91627054167,-0.667510986328125,-0.48175048828125,-0.6767578125,28579.90622254167,1.285143275379869,-0.8480022219689911,0.3841346109163847,-0.07212982326745987,-0.2797317504882812,0.07473859935998917,0.01602602005004883,-0.09503275156021118,-0.01939702033996582,XArbitraryZVertical,0.3812921781735587,-0.2190395591816938,0.4732779377497255,0.763312454338836,-0.6953055858612061,-0.3747569620609283,-0.6132758855819702,28571.908848125,unknown,2,2020-03-06 13:28:07.922 +0100,605190495.6401125,0,0.02000046,98.77663
2020-03-06 13:28:15.946 +0100,28579.93134354167,-0.65301513671875,-0.4403533935546875,-0.64556884765625,28579.92129454167,1.282594245541229,-0.8511933716382626,0.3797229734077047,-0.5528347492218018,-0.2876782715320587,0.1571021378040314,0.03091955184936523,-0.1191155314445496,-0.04050904512405396,XArbitraryZVertical,0.3802886141676773,-0.2220624861536541,0.472640783671186,0.7633344040735152,-0.6984956860542297,-0.370663195848465,-0.6121376156806946,28571.908848125,unknown,2,2020-03-06 13:28:07.922 +0100,605190495.6401125,0,0.02000046,98.77663
2020-03-06 13:28:15.961 +0100,28579.94641554167,-0.669647216796875,-0.3314056396484375,-0.600067138671875,28579.93636754167,1.276427591905748,-0.8537323908130857,0.3705364627071548,-0.7903958559036255,-0.2983213067054749,0.2474469542503357,0.04956537485122681,-0.07823991775512695,-0.03299242258071899,XArbitraryZVertical,0.377110874616824,-0.2269367739391434,0.4717677146222604,0.7640172479157977,-0.7025846838951111,-0.3621155321598053,-0.6125741600990295,28571.908848125,unknown,2,2020-03-06 13:28:07.922 +0100,605190495.6401125,0,0.02000046,98.77663
2020-03-06 13:28:15.976 +0100,28579.96148754167,-0.6676483154296875,-0.218231201171875,-0.574310302734375,28579.95143954167,1.269069802886025,-0.8546928977506583,0.3593044628750379,-0.813535749912262,-0.1775691360235214,0.2688029408454895,0.03999364376068115,-0.02397382259368896,0.008606076240539551,XArbitraryZVertical,0.3727012512471627,-0.2320099202523259,0.4711661761853006,0.7650278193967044,-0.7061965465545654,-0.3516232073307037,-0.6145303249359131,28571.908848125,unknown,2,2020-03-06 13:28:07.922 +0100,605190495.6401125,0,0.02000046,98.77663
2020-03-06 13:28:15.991 +0100,28579.97656054167,-0.6705474853515625,-0.1821136474609375,-0.56005859375,28579.96651254167,1.263264116938912,-0.8541982959271206,0.3498201737133898,-0.5496581792831421,-0.01235758885741234,0.1974778026342392,0.04072278738021851,0.1244956851005554,0.04273432493209839,XArbitraryZVertical,0.3686859261057371,-0.2356894735233748,0.4710453815520326,0.765922583400564,-0.7083753943443298,-0.3427288830280304,-0.6170423030853271,28571.908848125,unknown,2,2020-03-06 13:28:07.922 +0100,605190495.6401125,0,0.02000046,98.77663
2020-03-06 13:28:16.006 +0100,28579.99163254167,-0.663787841796875,-0.2669830322265625,-0.5667877197265625,28579.98158454167,1.260780557457197,-0.8521516271432035,0.3437974522189103,-0.1941946148872375,0.1705150306224823,0.2132269442081451,0.03445327281951904,0.1644859313964844,0.05880564451217651,XArbitraryZVertical,0.3658564400581428,-0.2371281960453098,0.4717398392931762,0.7664076910686499,-0.7086518406867981,-0.3370647430419922,-0.6198385953903198,28571.908848125,unknown,2,2020-03-06 13:28:07.922 +0100,605190495.6401125,0,0.02000046,98.77663
2020-03-06 13:28:16.021 +0100,28580.00670554167,-0.624114990234375,-0.332855224609375,-0.51849365234375,28579.99665654167,1.262670394789582,-0.8490865095596754,0.3407597844353276,0.0673656165599823,0.3227250576019287,0.2298711687326431,0.04372191429138184,0.06721830368041992,0.05589586496353149,XArbitraryZVertical,0.3643178056883981,-0.2364991770971308,0.4736610708505498,0.7661500266779827,-0.7075140476226807,-0.3342032730579376,-0.6226813793182373,28571.908848125,unknown,2,2020-03-06 13:28:07.922 +0100,605190495.6401125,0,0.02000046,98.77663
2020-03-06 13:28:16.036 +0100,28580.02177754167,-0.5725860595703125,-0.3186187744140625,-0.5906524658203125,28580.01172954167,1.266449887544762,-0.8440690400717082,0.3385717687702162,0.09585028141736984,0.4547270834445953,0.3242881000041962,0.05732321739196777,0.01753270626068115,0.1160135269165039,XArbitraryZVertical,0.3628228954663025,-0.2345328568301421,0.4764775136564392,0.7657173137938732,-0.7049256563186646,-0.3321402668952942,-0.6267077922821045,28571.908848125,unknown,2,2020-03-06 13:28:07.922 +0100,605190495.6401125,0,0.02000046,98.77663
2020-03-06 13:28:16.051 +0100,28580.03685054167,-0.5706024169921875,-0.296417236328125,-0.609588623046875,28580.02680154167,1.270800627785638,-0.838796914081928,0.3365426194938419,0.09886705130338669,0.4567706882953644,0.2255371361970901,0.1295214891433716,0.01160499453544617,0.04021430015563965,XArbitraryZVertical,0.3613765376443667,-0.2323244855639261,0.479518382222024,0.7651760825556456,-0.7021116614341736,-0.3302256464958191,-0.630864679813385,28571.908848125,unknown,2,2020-03-06 13:28:07.922 +0100,605190495.6401125,0,0.02000046,98.77663
2020-03-06 13:28:16.066 +0100,28580.05192254167,-0.5936431884765625,-0.2850189208984375,-0.6580963134765625,28580.04187454167,1.274027910501355,-0.8325863232183531,0.3351391918541493,0.09142185747623444,0.4912997782230377,0.2076321989297867,0.1259778141975403,0.03469404578208923,0.03616112470626831,XArbitraryZVertical,0.359775882196968,-0.229780732684949,0.4821621962863664,0.7650370878399531,-0.6985222101211548,-0.3289006352424622,-0.6355242729187012,28571.908848125,unknown,2,2020-03-06 13:28:07.922 +0100,605190495.6401125,0,0.02000046,98.77663
2020-03-06 13:28:16.081 +0100,28580.06699454167,-0.611602783203125,-0.2962646484375,-0.687744140625,28580.05694654167,1.278147300007337,-0.826190973620108,0.3339256510384463,0.1664020866155624,0.5516347289085388,0.2562556862831116,0.1010893583297729,0.04273366928100586,-0.0178457498550415,XArbitraryZVertical,0.3582841076828844,-0.2269542720143768,0.4851343606206824,0.7647017738635121,-0.6947365403175354,-0.3277543485164642,-0.6402485370635986,28571.908848125,unknown,2,2020-03-06 13:28:07.922 +0100,605190495.6401125,0,0.02000046,98.77663
2020-03-06 13:28:16.097 +0100,28580.08206754167,-0.5951080322265625,-0.206756591796875,-0.718475341796875,28580.07201954167,1.283891447370703,-0.8196492464404637,0.3327109090571536,0.2945678234100342,0.5786473751068115,0.3328067362308502,0.07569241523742676,0.0340631902217865,-0.01052582263946533,XArbitraryZVertical,0.3569225809159764,-0.223787537754796,0.4887465347255865,0.7639713283151268,-0.6908238530158997,-0.3266064822673798,-0.6450508236885071,28571.908848125,unknown,2,2020-03-06 13:28:07.922 +0100,605190495.6401125,0,0.02000046,98.77663
2020-03-06 13:28:16.112 +0100,28580.09713954167,-0.5957183837890625,-0.205291748046875,-0.739593505859375,28580.08709154167,1.290578946555867,-0.8128415813749059,0.3316389107555961,0.1901656687259674,0.5827131867408752,0.3379075825214386,0.09155857563018799,0.1188347339630127,-0.06849437952041626,XArbitraryZVertical,0.3556276653000112,-0.2203167033688247,0.4927288298558519,0.7630253595680286,-0.6866704821586609,-0.3255930840969086,-0.6499790549278259,28571.908848125,unknown,2,2020-03-06 13:28:07.922 +0100,605190495.6401125,0,0.02000046,98.77663
2020-03-06 13:28:16.127 +0100,28580.11221254167,-0.589111328125,-0.213531494140625,-0.7100067138671875,28580.10216354167,1.294979977814993,-0.8060437662380987,0.3291051955585151,-0.06178401410579681,0.5087928771972656,0.2982957065105438,0.08896863460540771,0.1259900331497192,-0.06998634338378906,XArbitraryZVertical,0.3535615397804935,-0.2177011158080203,0.4961207120383799,0.7625383142601705,-0.6828292608261108,-0.3231963813304901,-0.6552008986473083,28571.908848125,unknown,2,2020-03-06 13:28:07.922 +0100,605190495.6401125,0,0.02000046,98.77663
2020-03-06 13:28:16.142 +0100,28580.12728454167,-0.643341064453125,-0.183990478515625,-0.7303924560546875,28580.11723654167,1.296306433809655,-0.7998467577301169,0.3238414746224075,-0.2447186857461929,0.3587572872638702,0.3074223697185516,0.0908515453338623,0.1046774983406067,-0.0494086742401123,XArbitraryZVertical,0.3503590273719359,-0.2166806415916601,0.4987637896941003,0.7625829057657151,-0.6799666881561279,-0.3182106912136078,-0.6605961322784424,28571.908848125,unknown,2,2020-03-06 13:28:07.922 +0100,605190495.6401125,0,0.02000046,98.77663
2020-03-06 13:28:16.157 +0100,28580.14235754167,-0.71417236328125,-0.1136627197265625,-0.6969757080078125,28580.13230854167,1.296473452741176,-0.7950770362586935,0.3185635848559648,-0.213894709944725,0.2849105298519135,0.2040319740772247,0.06018078327178955,0.1016989946365356,-0.05352067947387695,XArbitraryZVertical,0.347370497680823,-0.2164126408198323,0.5007005215195445,0.7627570392653509,-0.6779977083206177,-0.3132027387619019,-0.6649985909461975,28571.908848125,unknown,2,2020-03-06 13:28:07.922 +0100,605190495.6401125,0,0.02000046,98.77663
2020-03-06 13:28:16.172 +0100,28580.15742954167,-0.7650299072265625,-0.1641998291015625,-0.649749755859375,28580.14738154167,1.297416438774236,-0.7914594765051973,0.3160177879058184,0.1043026745319366,0.2461737543344498,0.1412447541952133,-0.03802353143692017,0.1971196532249451,-0.0289686918258667,XArbitraryZVertical,0.345688275549774,-0.2156317039054782,0.5021859778681412,0.7627658979455634,-0.6761526465415955,-0.3107840120792389,-0.6680051684379578,28571.908848125,unknown,2,2020-03-06 13:28:07.922 +0100,605190495.6401125,0,0.02000046,98.77663
2020-03-06 13:28:16.187 +0100,28580.17250254167,-0.751068115234375,-0.2570953369140625,-0.6173095703125,28580.16245354167,1.302135067853492,-0.7889438193910262,0.3171653455740808,0.3896494209766388,0.2869770526885986,0.1811338514089584,-0.07973933219909668,0.1731094419956207,-0.0007576346397399902,XArbitraryZVertical,0.3459568796260479,-0.213512748563722,0.5041954207877096,0.7619140957819441,-0.6742165088653564,-0.3118745386600494,-0.6694523096084595,28571.908848125,unknown,2,2020-03-06 13:28:07.922 +0100,605190495.6401125,0,0.02000046,98.77663
2020-03-06 13:28:16.202 +0100,28580.18757454167,-0.738128662109375,-0.3023529052734375,-0.5938720703125,28580.17752654167,1.309082410698638,-0.7868165949809647,0.3195115636063704,0.4187668263912201,0.2525556981563568,0.1854164749383926,-0.07880109548568726,0.05700585246086121,0.05305874347686768,XArbitraryZVertical,0.3469624825127112,-0.2107932611575163,0.5067506823452747,0.7605175868237142,-0.6722708940505981,-0.3141028881072998,-0.6703664660453796,28571.908848125,unknown,2,2020-03-06 13:28:07.922 +0100,605190495.6401125,0,0.02000046,98.77663
2020-03-06 13:28:16.217 +0100,28580.20264654167,-0.7584228515625,-0.3580780029296875,-0.6173858642578125,28580.19259854167,1.314520112357133,-0.7853723272484519,0.321116637178734,0.2283484041690826,0.1604864150285721,0.1503099203109741,-0.0671268105506897,0.03202474117279053,0.07762789726257324,XArbitraryZVertical,0.3477163499452976,-0.2088149222389727,0.508755115824065,0.7593799311190815,-0.6709446907043457,-0.315626323223114,-0.6709793210029602,28571.908848125,unknown,2,2020-03-06 13:28:07.922 +0100,605190495.6401125,0,0.02000046,98.77663
2020-03-06 13:28:16.232 +0100,28580.21771954167,-0.7850494384765625,-0.406494140625,-0.5643768310546875,28580.20767154167,1.318253547501767,-0.784708322475103,0.3205352818801789,0.07681423425674438,0.07020571827888489,0.2370181828737259,-0.08779823780059814,-0.04300510883331299,0.05417042970657349,XArbitraryZVertical,0.347737409101683,-0.208090075307691,0.510400330557376,0.7584647160245329,-0.670628547668457,-0.315074622631073,-0.6715544462203979,28571.908848125,unknown,2,2020-03-06 13:28:07.922 +0100,605190495.6401125,0,0.02000046,98.77663
2020-03-06 13:28:16.247 +0100,28580.23279154167,-0.78564453125,-0.4147796630859375,-0.5909576416015625,28580.22274354167,1.321713559956053,-0.7850186933463084,0.3174253452503762,-0.03940866887569427,0.04590697586536407,0.35337895154953,-0.1031664609909058,-0.07513302564620972,0.1005811095237732,XArbitraryZVertical,0.3471144393283403,-0.2085509630449014,0.5122613419479798,0.7573680320495136,-0.6715262532234192,-0.312121570110321,-0.6720361113548279,28571.908848125,unknown,2,2020-03-06 13:28:07.922 +0100,605190495.6401125,0,0.02000046,98.77663
2020-03-06 13:28:16.262 +0100,28580.24786454167,-0.7540130615234375,-0.3917083740234375,-0.6156768798828125,28580.23781554167,1.324952539296977,-0.7851681815637856,0.3119527509223916,-0.1778592169284821,0.06807193160057068,0.4024444818496704,-0.1128243803977966,-0.1078636944293976,0.08217805624008179,XArbitraryZVertical,0.3456222792280228,-0.2097101922377528,0.5145201155208534,0.7561982834673084,-0.6728242039680481,-0.3069177269935608,-0.6731337308883667,28571.908848125,unknown,2,2020-03-06 13:28:07.922 +0100,605190495.6401125,0,0.02000046,98.77663
2020-03-06 13:28:16.277 +0100,28580.26293654167,-0.7188568115234375,-0.3881988525390625,-0.66925048828125,28580.25288854167,1.326321251808759,-0.7845609693927001,0.3043331858210743,-0.3915577232837677,0.06168954819440842,0.448462039232254,-0.09307634830474854,-0.09530314803123474,0.06606394052505493,XArbitraryZVertical,0.3430055463700078,-0.2115617819681183,0.5166092124327163,0.7554493016715383,-0.6740480661392212,-0.2996570765972137,-0.6751776337623596,28571.908848125,unknown,2,2020-03-06 13:28:07.922 +0100,605190495.6401125,0,0.02000046,98.77663
2020-03-06 13:28:16.292 +0100,28580.27800954167,-0.7203521728515625,-0.3372650146484375,-0.6782684326171875,28580.26796054167,1.32799509928149,-0.7846587560854363,0.2953696384987967,-0.2287243902683258,-0.003998784348368645,0.5274152159690857,-0.04287588596343994,-0.09710699319839478,0.007736623287200928,XArbitraryZVertical,0.3401407181638224,-0.2140366178421211,0.5189400585728887,0.7544492966483414,-0.6759848594665527,-0.291093498468399,-0.6769852638244629,28571.908848125,unknown,2,2020-03-06 13:28:07.922 +0100,605190495.6401125,0,0.02000046,98.77663
2020-03-06 13:28:16.308 +0100,28580.29308154167,-0.7195587158203125,-0.32196044921875,-0.663421630859375,28580.28303354167,1.333007047348385,-0.7862494889159833,0.2892257496326759,0.07627536356449127,-0.002018887549638748,0.4905110895633698,-0.03746461868286133,-0.07103824615478516,-0.003990650177001953,XArbitraryZVertical,0.338989549413026,-0.2156528510879063,0.5217284980683273,0.7525817475573628,-0.6783137917518616,-0.2852102220058441,-0.67715984582901,28571.908848125,unknown,2,2020-03-06 13:28:07.922 +0100,605190495.6401125,0,0.02000046,98.77663
2020-03-06 13:28:16.323 +0100,28580.30815454167,-0.690673828125,-0.3492584228515625,-0.6709442138671875,28580.29810554167,1.339355036572321,-0.7878676123467152,0.2853464985972137,0.05856586620211601,0.03271938487887383,0.4612091481685638,-0.03937476873397827,-0.04047203063964844,0.01341688632965088,XArbitraryZVertical,0.3387726248322723,-0.2163671670366626,0.5245763941675767,0.7504918271945282,-0.6801878213882446,-0.2814899682998657,-0.6768367290496826,28571.908848125,unknown,2,2020-03-06 13:28:07.922 +0100,605190495.6401125,0,0.02000046,98.77663
2020-03-06 13:28:16.338 +0100,28580.32322654167,-0.659759521484375,-0.3110809326171875,-0.6999053955078125,28580.31317854167,1.343136644506568,-0.7886895176018419,0.279210537741498,-0.3604190945625305,-0.007018113974481821,0.4537994265556335,-0.02037882804870605,-0.06797143816947937,0.01406204700469971,XArbitraryZVertical,0.3373050805187602,-0.2179089178885349,0.5270165610718618,0.7489956300310538,-0.68195641040802,-0.2755968570709229,-0.6774819493293762,28571.908848125,unknown,2,2020-03-06 13:28:07.922 +0100,605190495.6401125,0,0.02000046,98.77663
2020-03-06 13:28:16.353 +0100,28580.33829854167,-0.667999267578125,-0.2422637939453125,-0.7156524658203125,28580.32825054167,1.340706798574427,-0.7893292179666052,0.2680603674312984,-0.9304116368293762,-0.1421867460012436,0.387596994638443,0.02476537227630615,-0.04622071981430054,-0.02073585987091064,XArbitraryZVertical,0.3333948579817482,-0.2219548701644634,0.5280985009408162,0.7487962563968762,-0.6845285892486572,-0.2648615837097168,-0.6791678071022034,28571.908848125,unknown,2,2020-03-06 13:28:07.922 +0100,605190495.6401125,0,0.02000046,98.77663
2020-03-06 13:28:16.368 +0100,28580.35337154167,-0.736968994140625,-0.235443115234375,-0.69757080078125,28580.34332354167,1.33151371562292,-0.7900758142342494,0.2517541506121694,-1.413879632949829,-0.2682377994060516,0.3182631731033325,0.03082811832427979,-0.01545490324497223,-0.02490502595901489,XArbitraryZVertical,0.3269498231425836,-0.2286939243072112,0.5275760759281251,0.7499775924324704,-0.688012421131134,-0.2491032034158707,-0.6816058158874512,28571.908848125,unknown,2,2020-03-06 13:28:07.922 +0100,605190495.6401125,0,0.02000046,98.77663
2020-03-06 13:28:16.389 +0100,28580.36844354167,-0.758026123046875,-0.2342529296875,-0.6605377197265625,28580.35839554167,1.31791133806786,-0.7911040507709984,0.2324958373508219,-1.600009799003601,-0.2602642774581909,0.2991315722465515,-0.04497617483139038,-0.0050373375415802,-0.01342475414276123,XArbitraryZVertical,0.3189559619788949,-0.237054674666876,0.5258648520939924,0.7520228871043376,-0.6919965147972107,-0.2304069250822067,-0.6841443777084351,28571.908848125,unknown,2,2020-03-06 13:28:07.922 +0100,605190495.6401125,0,0.02000046,98.77663
2020-03-06 13:28:16.404 +0100,28580.38351654167,-0.7205352783203125,-0.18377685546875,-0.645477294921875,28580.37346754167,1.303773263283005,-0.791115404026277,0.2115855935561345,-1.64859414100647,-0.1709570735692978,0.3936870396137238,-0.06453597545623779,-0.03570288419723511,0.02392327785491943,XArbitraryZVertical,0.3099238477027593,-0.245479672136384,0.5243651265193975,0.7541406684376862,-0.6952789425849915,-0.2100103944540024,-0.6873738765716553,28571.908848125,unknown,2,2020-03-06 13:28:07.922 +0100,605190495.6401125,0,0.02000046,98.77663
2020-03-06 13:28:16.413 +0100,28580.39858854167,-0.6770477294921875,-0.09228515625,-0.6675872802734375,28580.38854054167,1.290800069512984,-0.7907310737583758,0.1899734718514043,-1.498686194419861,-0.1143043264746666,0.4428331851959229,-0.02246034145355225,0.005055069923400879,0.04519671201705933,XArbitraryZVertical,0.3005496650453147,-0.2536408496089101,0.5234307669870435,0.755881216815444,-0.6980785727500916,-0.1888328492641449,-0.6906724572181702,28571.908848125,unknown,2,2020-03-06 13:28:07.922 +0100,605190495.6401125,0,0.02000046,98.77663
2020-03-06 13:28:16.428 +0100,28580.41366154167,-0.739013671875,-0.039642333984375,-0.7013702392578125,28580.40361254167,1.281591588261947,-0.7905361573916252,0.1725456418054087,-0.9387973546981812,-0.07932373136281967,0.3298090994358063,0.01352775096893311,0.03993034362792969,0.02151119709014893,XArbitraryZVertical,0.2930893969273215,-0.2599795244229083,0.5230879369166379,0.7568937238274011,-0.7001767754554749,-0.1716907471418381,-0.6930184960365295,28571.908848125,unknown,2,2020-03-06 13:28:07.922 +0100,605190495.6401125,0,0.02000046,98.77663
2020-03-06 13:28:16.444 +0100,28580.42873354167,-0.814117431640625,-0.127044677734375,-0.6563720703125,28580.41868554167,1.277525387746637,-0.7898964875793252,0.1642256992622008,-0.2660399973392487,0.1092568337917328,0.07750069350004196,-0.03829348087310791,0.1238454282283783,-0.006920933723449707,XArbitraryZVertical,0.2894018947786466,-0.2627216392529138,0.5231145309383602,0.7573473419619414,-0.7007237672805786,-0.1634884923696518,-0.6944477558135986,28571.908848125,unknown,2,2020-03-06 13:28:07.922 +0100,605190495.6401125,0,0.02000046,98.77663
2020-03-06 13:28:16.458 +0100,28580.443805375,-0.747100830078125,-0.232177734375,-0.673736572265625,28580.433757375,1.277017810763726,-0.7862187203000638,0.1626877729582996,-0.0001355838030576706,0.3544847369194031,0.08554227650165558,-0.1086987257003784,0.0782911479473114,0.01802980899810791,XArbitraryZVertical,0.2878189766579648,-0.2618429597550169,0.5237237789138774,0.7578336990558189,-0.6983421444892883,-0.1619710773229599,-0.6971970200538635,28571.908848125,unknown,2,2020-03-06 13:28:07.922 +0100,605190495.6401125,0,0.02000046,98.77663
2020-03-06 13:28:16.473 +0100,28580.458878375,-0.695892333984375,-0.27276611328125,-0.6896820068359375,28580.448830375,1.27890790826723,-0.7810207078141456,0.1604709089079674,-0.04566488787531853,0.3552801907062531,0.2662660181522369,-0.05214452743530273,-0.07239535450935364,0.02733570337295532,XArbitraryZVertical,0.2859028484781579,-0.2602386249774046,0.5255734771139952,0.7578310663539229,-0.6949597597122192,-0.1597830802202225,-0.7010708451271057,28571.908848125,unknown,2,2020-03-06 13:28:07.922 +0100,605190495.6401125,0,0.02000046,98.77663
2020-03-06 13:28:16.489 +0100,28580.473950375,-0.603424072265625,-0.2461700439453125,-0.7642059326171875,28580.463902375,1.280867232640648,-0.7757136659523667,0.1566243367010464,-0.1044333577156067,0.3844703733921051,0.2622018158435822,-0.0198814868927002,-0.1074436902999878,0.03262251615524292,XArbitraryZVertical,0.2833713651438265,-0.2590546729440982,0.5277387850478217,0.7576826875491661,-0.6916546225547791,-0.1559847593307495,-0.705182671546936,28571.908848125,unknown,2,2020-03-06 13:28:07.922 +0100,605190495.6401125,0,0.02000046,98.77663
2020-03-06 13:28:16.504 +0100,28580.489023375,-0.5713653564453125,-0.18914794921875,-0.785614013671875,28580.478974375,1.282843469587398,-0.7706025917130962,0.1533435148865441,-0.004760828800499439,0.3196367919445038,0.214202344417572,0.08496654033660889,-0.09342744946479797,-0.05513256788253784,XArbitraryZVertical,0.2810899160796839,-0.2577838143481529,0.5297732225340068,0.7575461828553259,-0.6883941292762756,-0.1527432650327682,-0.709071934223175,28571.908848125,unknown,2,2020-03-06 13:28:07.922 +0100,605190495.6401125,0,0.02000046,98.77663
2020-03-06 13:28:16.518 +0100,28580.504095375,-0.5817718505859375,-0.24615478515625,-0.77630615234375,28580.494047375,1.285436367522393,-0.7663968696928045,0.1525955597612803,0.1463651955127716,0.3169819116592407,0.1037116646766663,0.1175493001937866,-0.04668131470680237,-0.077628493309021,XArbitraryZVertical,0.2800367169869015,-0.2560428840544469,0.5314730040514889,0.7573360499130527,-0.6854849457740784,-0.1520040333271027,-0.7120429277420044,28571.908848125,unknown,2,2020-03-06 13:28:07.922 +0100,605190495.6401125,0,0.02000046,98.77663
2020-03-06 13:28:16.534 +0100,28580.519168375,-0.554901123046875,-0.29559326171875,-0.7325286865234375,28580.509119375,1.28782163887219,-0.7616272270814561,0.1528234929925504,0.05674103647470474,0.3448870480060577,0.1187840849161148,0.1002817749977112,-0.09392619132995605,-0.06102550029754639,XArbitraryZVertical,0.2791539052903306,-0.2538374796216396,0.533004278861368,0.7573281957371309,-0.6820570230484009,-0.1522293239831924,-0.7152792811393738,28571.908848125,unknown,2,2020-03-06 13:28:07.922 +0100,605190495.6401125,0,0.02000046,98.77663
2020-03-06 13:28:16.549 +0100,28580.534240375,-0.5566864013671875,-0.2614593505859375,-0.7149200439453125,28580.524192375,1.288364056236573,-0.7569027136654329,0.1505817273070395,-0.2376159578561783,0.2778620421886444,0.1194053068757057,0.1169637441635132,-0.1433529257774353,-0.03434085845947266,XArbitraryZVertical,0.2771507854508732,-0.2526211974603321,0.5342453570425535,0.7575960957073249,-0.6789026856422424,-0.1500132977962494,-0.718739926815033,28571.908848125,unknown,2,2020-03-06 13:28:07.922 +0100,605190495.6401125,0,0.02000046,98.77663
2020-03-06 13:28:16.564 +0100,28580.549313375,-0.626983642578125,-0.097076416015625,-0.7161102294921875,28580.539264375,1.286630775560602,-0.7534521216761449,0.1469582487135932,-0.196817934513092,0.1732733249664307,0.02997102402150631,0.1200961470603943,-0.1150301694869995,0.00655132532119751,XArbitraryZVertical,0.2746962572160265,-0.2526004375985749,0.5346724868658381,0.7581953657181159,-0.6767860054969788,-0.1464298516511917,-0.7214699983596802,28571.908848125,unknown,2,2020-03-06 13:28:07.922 +0100,605190495.6401125,0,0.02000046,98.77663
2020-03-06 13:28:16.579 +0100,28580.564385375,-0.6946258544921875,-0.012451171875,-0.7244720458984375,28580.554337375,1.285456693774564,-0.7499880922477342,0.1467141436059408,0.07945382595062256,0.289574533700943,-0.1042430326342583,0.07925671339035034,-0.01264104247093201,0.009848296642303467,XArbitraryZVertical,0.2735335254341546,-0.251518037929956,0.5347427030380774,0.7589256967557171,-0.674307107925415,-0.1461883783340454,-0.7238361835479736,28571.908848125,unknown,2,2020-03-06 13:28:07.922 +0100,605190495.6401125,0,0.02000046,98.77663
2020-03-06 13:28:16.594 +0100,28580.579457375,-0.6886138916015625,-0.0458221435546875,-0.7399139404296875,28580.569409375,1.286331866305191,-0.7442378253061074,0.1500739057079029,0.2904391586780548,0.4599625468254089,-0.08461381494998932,-0.02483201026916504,0.137059360742569,0.00286555290222168,XArbitraryZVertical,0.2733256580295743,-0.2482437700924773,0.5353023162289101,0.7596837800107812,-0.6697972416877747,-0.1495112031698227,-0.7273362278938293,28571.908848125,unknown,2,2020-03-06 13:28:07.922 +0100,605190495.6401125,0,0.02000046,98.77663
2020-03-06 13:28:16.609 +0100,28580.594530375,-0.675201416015625,-0.110198974609375,-0.7578582763671875,28580.584482375,1.289093869278062,-0.7368717913357959,0.1545341673916149,0.3761427402496338,0.5471773147583008,-0.06424981355667114,-0.0359114408493042,0.1292151808738708,-0.0001068711280822754,XArbitraryZVertical,0.2733125210556257,-0.2437739456280316,0.5366199224911448,0.7602062001781246,-0.6639668345451355,-0.1539198309183121,-0.7317490577697754,28571.908848125,unknown,2,2020-03-06 13:28:07.922 +0100,605190495.6401125,0,0.02000046,98.77663
2020-03-06 13:28:16.624 +0100,28580.609602375,-0.671966552734375,-0.1184539794921875,-0.82891845703125,28580.599554375,1.291532665212217,-0.7288627168616783,0.1609373427774649,0.4393344819545746,0.5351659059524536,-0.2490968853235245,-0.01778960227966309,0.05004385113716125,-0.02156394720077515,XArbitraryZVertical,0.2737821882375702,-0.238530481733203,0.537587558235918,0.7610165365672359,-0.6574150919914246,-0.1602435111999512,-0.7362930178642273,28571.908848125,unknown,2,2020-03-06 13:28:07.922 +0100,605190495.6401125,0,0.02000046,98.77663
2020-03-06 13:28:16.639 +0100,28580.624675375,-0.710174560546875,-0.2433319091796875,-0.830474853515625,28580.614626375,1.292750788969844,-0.7217092433529888,0.1688278250152415,0.4417766928672791,0.4321259558200836,-0.3066025674343109,-0.01843583583831787,0.05112864077091217,-0.0731654167175293,XArbitraryZVertical,0.2748686489551458,-0.2333342000849701,0.5377360285801385,0.7621301466327897,-0.651275634765625,-0.1680269539356232,-0.7400047779083252,28571.908848125,unknown,2,2020-03-06 13:28:07.922 +0100,605190495.6401125,0,0.02000046,98.77663
2020-03-06 13:28:16.654 +0100,28580.639747375,-0.608367919921875,-0.300750732421875,-0.843292236328125,28580.629699375,1.294256256825161,-0.7155212148460071,0.1766676223809544,0.4631151556968689,0.4116947650909424,-0.1847006678581238,-0.06437772512435913,-0.0675826370716095,-0.08747005462646484,XArbitraryZVertical,0.2762244095580023,-0.2284694466960195,0.5378759538526214,0.763014555020248,-0.6457999348640442,-0.1757500469684601,-0.7430035471916199,28571.908848125,unknown,2,2020-03-06 13:28:07.922 +0100,605190495.6401125,0,0.02000046,98.77663
2020-03-06 13:28:16.669 +0100,28580.654820375,-0.5927581787109375,-0.292388916015625,-0.7762451171875,28580.644771375,1.297467257284252,-0.7107567918345663,0.1831591311311387,0.47320756316185,0.2869312763214111,-0.1244656145572662,-0.01074528694152832,-0.1193472295999527,-0.1087194681167603,XArbitraryZVertical,0.2776594719379004,-0.2242975421963403,0.5386962105309,0.7631528562571754,-0.6414948105812073,-0.1821367591619492,-0.7451916337013245,28571.908848125,unknown,2,2020-03-06 13:28:07.922 +0100,605190495.6401125,0,0.02000046,98.77663
2020-03-06 13:28:16.685 +0100,28580.669892375,-0.6038360595703125,-0.21734619140625,-0.7805938720703125,28580.659844375,1.29903089741871,-0.7072624630366328,0.190243134632351,0.364639014005661,0.2200654149055481,-0.3336066007614136,0.04527139663696289,-0.1032920777797699,-0.02981477975845337,XArbitraryZVertical,0.2794576587382508,-0.2206554765549651,0.5386173655063431,0.7636136964197325,-0.6380325555801392,-0.1890976428985596,-0.7464291453361511,28571.908848125,unknown,2,2020-03-06 13:28:07.922 +0100,605190495.6401125,0,0.02000046,98.77663
2020-03-06 13:28:16.699 +0100,28580.684964375,-0.626983642578125,-0.088714599609375,-0.71575927734375,28580.674916375,1.298136476719204,-0.7043437615973288,0.1968991823590207,0.2543357908725739,0.1399724036455154,-0.3000508844852448,0.02674281597137451,-0.05991041660308838,-0.03326499462127686,XArbitraryZVertical,0.2809829816647531,-0.21769777869318,0.537590225247396,0.7646259678138189,-0.6350221633911133,-0.1956293731927872,-0.7473124861717224,28571.908848125,unknown,2,2020-03-06 13:28:07.922 +0100,605190495.6401125,0,0.02000046,98.77663
2020-03-06 13:28:16.715 +0100,28580.700037375,-0.64691162109375,-0.0073089599609375,-0.723541259765625,28580.689989375,1.297350503227254,-0.7019763033913633,0.2027685470093181,0.312202513217926,0.1742798835039139,-0.3140829503536224,0.005512058734893799,0.1126663833856583,0.03216612339019775,XArbitraryZVertical,0.2823854607121669,-0.2151659284785361,0.5366556955579371,0.7654819891620561,-0.6324988007545471,-0.2013819217681885,-0.7479241490364075,28571.908848125,unknown,2,2020-03-06 13:28:07.922 +0100,605190495.6401125,0,0.02000046,98.77663
2020-03-06 13:28:16.730 +0100,28580.715109375,-0.616729736328125,-0.00811767578125,-0.6764984130859375,28580.705061375,1.296911198786513,-0.6986148684459244,0.2105047901492079,0.4309682548046112,0.248182013630867,-0.3837651014328003,-0.02353918552398682,0.1788775026798248,0.03031075000762939,XArbitraryZVertical,0.2842349812377555,-0.2116486807000619,0.5356854181267489,0.7664570275156715,-0.6289603114128113,-0.2089535742998123,-0.7488306164741516,28571.908848125,unknown,2,2020-03-06 13:28:07.922 +0100,605190495.6401125,0,0.02000046,98.77663
2020-03-06 13:28:16.745 +0100,28580.730182375,-0.6766204833984375,-0.1783599853515625,-0.650604248046875,28580.720134375,1.296470224582029,-0.6945848592441612,0.2198409980814046,0.4767431914806366,0.2757806181907654,-0.4677364230155945,0.007928609848022461,0.2099557518959045,0.07333052158355713,XArbitraryZVertical,0.2864844225691415,-0.2073953597264846,0.5345441943274698,0.7675782469367685,-0.6246615052223206,-0.2180744558572769,-0.7498276829719543,28571.908848125,unknown,2,2020-03-06 13:28:07.922 +0100,605190495.6401125,0,0.02000046,98.77663
2020-03-06 13:28:16.760 +0100,28580.745254375,-0.77325439453125,-0.291168212890625,-0.666015625,28580.735206375,1.295026492949704,-0.6901929497372842,0.2302457460202101,0.4368965029716492,0.2468592673540115,-0.5403753519058228,-0.02773261070251465,0.1151175647974014,0.1010860204696655,XArbitraryZVertical,0.2889221559989707,-0.2028231759435929,0.5328910781241558,0.769034329590033,-0.6198840737342834,-0.2282167971134186,-0.7507734894752502,28571.908848125,unknown,2,2020-03-06 13:28:07.922 +0100,605190495.6401125,0,0.02000046,98.77663
2020-03-06 13:28:16.775 +0100,28580.760327375,-0.8114776611328125,-0.237060546875,-0.634552001953125,28580.750278375,1.291956044439925,-0.6865184233422875,0.2390071756597637,0.2103936374187469,0.1302227824926376,-0.4882284998893738,-0.1574273705482483,-0.05443117022514343,0.08545637130737305,XArbitraryZVertical,0.2908005372746552,-0.1992477434548843,0.5307793091196289,0.7707195194341715,-0.6158300638198853,-0.2367381453514099,-0.7514707446098328,28571.908848125,unknown,2,2020-03-06 13:28:07.922 +0100,605190495.6401125,0,0.02000046,98.77663
2020-03-06 13:28:16.790 +0100,28580.775399375,-0.7804718017578125,-0.231048583984375,-0.5657958984375,28580.765351375,1.288576545319496,-0.684054726110461,0.2454283974649328,0.2421525120735168,0.1203688681125641,-0.3968325853347778,-0.1975768208503723,-0.01922091841697693,0.1077654957771301,XArbitraryZVertical,0.2921334112045989,-0.1968807801800927,0.5287595053699761,0.7722106706630507,-0.6130034923553467,-0.2429719120264053,-0.7517920732498169,28571.908848125,unknown,2,2020-03-06 13:28:07.922 +0100,605190495.6401125,0,0.02000046,98.77663
2020-03-06 13:28:16.805 +0100,28580.790472375,-0.6688995361328125,-0.4003753662109375,-0.567047119140625,28580.780423375,1.287347235776572,-0.6808015509496905,0.253177726477777,0.4449729919433594,0.2793577313423157,-0.3618232011795044,-0.1711236238479614,0.01943188905715942,0.1865018606185913,XArbitraryZVertical,0.293954940428568,-0.193499902275352,0.5274598026289203,0.7732621936170987,-0.6093511581420898,-0.2504816353321075,-0.7522965669631958,28571.908848125,unknown,2,2020-03-06 13:28:07.922 +0100,605190495.6401125,0,0.02000046,98.77663
2020-03-06 13:28:16.820 +0100,28580.805544375,-0.5318603515625,-0.5198516845703125,-0.6443634033203125,28580.795496375,1.288732302850911,-0.6761975966448704,0.2618307968850523,0.5257565379142761,0.3342646658420563,-0.2151825428009033,-0.1106804013252258,-0.07179450988769531,0.1998485326766968,XArbitraryZVertical,0.2959981489299974,-0.1889377747022385,0.5272181434965363,0.7737754967518357,-0.6045020222663879,-0.2588493824005127,-0.753375232219696,28571.908848125,unknown,2,2020-03-06 13:28:07.922 +0100,605190495.6401125,0,0.02000046,98.77663
2020-03-06 13:28:16.835 +0100,28580.820616375,-0.4617462158203125,-0.4764251708984375,-0.6435394287109375,28580.810568375,1.2911075731626,-0.6732253142325131,0.2684837957546661,0.3128831088542938,0.1252239942550659,-0.1264096945524216,0.06930971145629883,-0.2545830011367798,0.1094433069229126,XArbitraryZVertical,0.2978357041659733,-0.1854484126006044,0.5274567507120541,0.7737519124742276,-0.6011730432510376,-0.2652698457241058,-0.7538055777549744,28571.908848125,unknown,2,2020-03-06 13:28:07.922 +0100,605190495.6401125,0,0.02000046,98.77663
2020-03-06 13:28:16.850 +0100,28580.835689375,-0.44195556640625,-0.3702239990234375,-0.712005615234375,28580.825641375,1.290386752181073,-0.6726818902522438,0.2714421434855452,-0.05495825409889221,-0.06418263167142868,-0.2044632136821747,0.1281921863555908,-0.2346878945827484,0.1141272783279419,XArbitraryZVertical,0.2986915177783062,-0.1844609441635249,0.5267592450507321,0.7741332488672743,-0.6002717614173889,-0.268121063709259,-0.7535150647163391,28571.908848125,unknown,2,2020-03-06 13:28:07.922 +0100,605190495.6401125,0,0.02000046,98.77663
2020-03-06 13:28:16.865 +0100,28580.850761375,-0.41851806640625,-0.23455810546875,-0.7797698974609375,28580.840713375,1.286039526105126,-0.6732099677121434,0.2715650789406262,-0.2300115674734116,-0.1663641333580017,-0.2302359491586685,0.1586903929710388,-0.1019857823848724,0.04116779565811157,XArbitraryZVertical,0.2984728627988172,-0.1852777732082914,0.5249757505780852,0.775233230087388,-0.6006489992141724,-0.2682394981384277,-0.7531722187995911,28571.908848125,unknown,2,2020-03-06 13:28:07.922 +0100,605190495.6401125,0,0.02000046,98.77663
2020-03-06 13:28:16.889 +0100,28580.865834375,-0.4920806884765625,-0.1221466064453125,-0.7796478271484375,28580.855786375,1.280777310036596,-0.6752019586728527,0.2711436687498407,-0.2488433569669724,-0.267682284116745,-0.2681559026241302,0.1811341047286987,-0.01634746789932251,-0.02549374103546143,XArbitraryZVertical,0.2983527239964485,-0.1869611233234804,0.5227086790627955,0.7764063523144398,-0.6022187471389771,-0.2678335011005402,-0.7520623803138733,28571.908848125,unknown,2,2020-03-06 13:28:07.922 +0100,605190495.6401125,0,0.02000046,98.77663
2020-03-06 13:28:16.901 +0100,28580.880906375,-0.58489990234375,-0.0610198974609375,-0.8561248779296875,28580.870858375,1.274364187517345,-0.6772847654611122,0.2705004620361619,-0.2943224608898163,-0.217534214258194,-0.3245704472064972,0.1118078827857971,0.1450658440589905,-0.02870607376098633,XArbitraryZVertical,0.2980602884978621,-0.1889174419941674,0.5200154899067567,0.7778522403114276,-0.6038916707038879,-0.2672137320041656,-0.7509405016899109,28571.908848125,unknown,2,2020-03-06 13:28:07.922 +0100,605190495.6401125,0,0.02000046,98.77663
2020-03-06 13:28:16.911 +0100,28580.895979375,-0.60955810546875,-0.0614166259765625,-0.8295135498046875,28580.885930375,1.268962699048801,-0.6791126131123267,0.2720827155116054,0.03758725523948669,-0.2237028032541275,-0.3075454235076904,0.03997606039047241,0.1867818236351013,-0.07925903797149658,XArbitraryZVertical,0.2985963221970156,-0.1899670294784142,0.5173706003919747,0.7791536514927866,-0.604996919631958,-0.2687381207942963,-0.7495055198669434,28571.908848125,unknown,2,2020-03-06 13:28:07.922 +0100,605190495.6401125,0,0.02000046,98.77663
2020-03-06 13:28:16.926 +0100,28580.911051375,-0.605560302734375,-0.3645782470703125,-0.7836761474609375,28580.901003375,1.267800512338243,-0.6814270584996097,0.2768032373829666,0.3752316236495972,-0.09204277396202087,-0.2158168256282806,-0.003637194633483887,0.2118639945983887,-0.08240258693695068,XArbitraryZVertical,0.3007955165101921,-0.189650241090077,0.5157622515592833,0.7794511895781484,-0.605924129486084,-0.2732819616794586,-0.7471097111701965,28571.908848125,unknown,2,2020-03-06 13:28:07.922 +0100,605190495.6401125,0,0.02000046,98.77663
2020-03-06 13:28:16.941 +0100,28580.926124375,-0.50457763671875,-0.542083740234375,-0.7012176513671875,28580.916075375,1.271755181915148,-0.6831201030459038,0.2854913544982506,0.7643958330154419,-0.01847822964191437,-0.101750947535038,-0.02025216817855835,0.03686127066612244,-0.05836737155914307,XArbitraryZVertical,0.3047472972738796,-0.1871431035119688,0.5155476253144998,0.7786637008284598,-0.6056665778160095,-0.2816289365291595,-0.7442131042480469,28571.908848125,unknown,2,2020-03-06 13:28:07.922 +0100,605190495.6401125,0,0.02000046,98.77663
2020-03-06 13:28:16.956 +0100,28580.941196375,-0.578369140625,-0.5298004150390625,-0.7034759521484375,28580.931148375,1.276935025775577,-0.6863520088062416,0.293234585349839,0.3956250548362732,-0.2388553023338318,-0.07299207150936127,0.1020874977111816,-0.2530350089073181,0.03932636976242065,XArbitraryZVertical,0.3088520384346079,-0.1853081605576915,0.5157202239566786,0.7773699341121427,-0.6066684722900391,-0.2890502512454987,-0.7405425906181335,28571.908848125,unknown,2,2020-03-06 13:28:07.922 +0100,605190495.6401125,0,0.02000046,98.77663
2020-03-06 13:28:16.971 +0100,28580.956268375,-0.6671295166015625,-0.3320465087890625,-0.795501708984375,28580.946220375,1.277365371406765,-0.6910465712436989,0.2973259039038839,0.07071304321289062,-0.3477423191070557,-0.2146477401256561,0.07402151823043823,-0.2605038285255432,0.0562741756439209,XArbitraryZVertical,0.3115697724272214,-0.185848862732319,0.5144419941890845,0.7770031843602154,-0.6093794703483582,-0.2929644882678986,-0.7367689609527588,28571.908848125,unknown,2,2020-03-06 13:28:07.922 +0100,605190495.6401125,0,0.02000046,98.77663
2020-03-06 13:28:16.986 +0100,28580.971341375,-0.68316650390625,-0.155059814453125,-0.792724609375,28580.961293375,1.276298624375527,-0.6961594798664595,0.2996445233111084,0.1679277420043945,-0.3596269488334656,-0.0551568828523159,-0.05443155765533447,-0.03686743974685669,-0.06237983703613281,XArbitraryZVertical,0.3136142304542607,-0.1873122782733111,0.5128189394743906,0.7769021756897332,-0.6127012968063354,-0.2951805889606476,-0.7331204414367676,28571.908848125,unknown,2,2020-03-06 13:28:07.922 +0100,605190495.6401125,0,0.02000046,98.77663
2020-03-06 13:28:17.001 +0100,28580.986413375,-0.6346588134765625,-0.242279052734375,-0.730743408203125,28580.976365375,1.279118000888493,-0.7014991430116815,0.3030688418740543,0.3780921995639801,-0.2161807119846344,-0.01527005527168512,-0.06190860271453857,0.106508731842041,-0.07801967859268188,XArbitraryZVertical,0.3164717228584283,-0.1879219352295725,0.5124630510218174,0.7758302688730085,-0.6159511804580688,-0.2984505891799927,-0.7290619611740112,28571.908848125,unknown,2,2020-03-06 13:28:07.922 +0100,605190495.6401125,0,0.02000046,98.77663
2020-03-06 13:28:17.016 +0100,28581.001486375,-0.5422210693359375,-0.473602294921875,-0.6423492431640625,28580.991437375,1.282159271854328,-0.704847553115805,0.3081032568134315,0.3528678417205811,-0.1362573355436325,-0.09652043879032135,-0.01725459098815918,0.06097114086151123,-0.004900217056274414,XArbitraryZVertical,0.3194089081329404,-0.1872353616913018,0.5122078836064303,0.774960560996985,-0.6174075603485107,-0.3032517433166504,-0.725841760635376,28571.908848125,unknown,2,2020-03-06 13:28:07.922 +0100,605190495.6401125,0,0.02000046,98.77663
2020-03-06 13:28:17.031 +0100,28581.016558375,-0.52459716796875,-0.464599609375,-0.6030426025390625,28581.006510375,1.284356317036714,-0.7075099258688423,0.3120917434790282,0.2412017583847046,-0.1381601542234421,-0.04838992282748222,0.05479204654693604,-0.09660762548446655,0.05475389957427979,XArbitraryZVertical,0.3217133033978086,-0.1867226088559409,0.5119133413220592,0.7743254461160591,-0.6185467839241028,-0.3070500195026398,-0.7232704162597656,28571.908848125,unknown,2,2020-03-06 13:28:07.922 +0100,605190495.6401125,0,0.02000046,98.77663
2020-03-06 13:28:17.046 +0100,28581.031631375,-0.5914154052734375,-0.2599029541015625,-0.54168701171875,28581.021582375,1.285205510477166,-0.7099353738773972,0.3147615713279057,0.1365997344255447,-0.1111501082777977,-0.1047762408852577,0.09516209363937378,-0.1550114750862122,0.1181026697158813,XArbitraryZVertical,0.3233598892425971,-0.186725740670226,0.511367506711325,0.7739993964134072,-0.6197627186775208,-0.3095897734165192,-0.7211437821388245,28571.908848125,unknown,2,2020-03-06 13:28:07.922 +0100,605190495.6401125,0,0.02000046,98.77663
