loggingTime(txt),accelerometerTimestamp_sinceReboot(s),accelerometerAccelerationX(G),accelerometerAccelerationY(G),accelerometerAccelerationZ(G),motionTimestamp_sinceReboot(s),motionYaw(rad),motionRoll(rad),motionPitch(rad),motionRotationRateX(rad/s),motionRotationRateY(rad/s),motionRotationRateZ(rad/s),motionUserAccelerationX(G),motionUserAccelerationY(G),motionUserAccelerationZ(G),motionAttitudeReferenceFrame(txt),motionQuaternionX(R),motionQuaternionY(R),motionQuaternionZ(R),motionQuaternionW(R),motionGravityX(G),motionGravityY(G),motionGravityZ(G),activityTimestamp_sinceReboot(s),activity(txt),activityActivityConfidence(Z),activityActivityStartDate(txt),altimeterTimestamp_sinceReboot(s),altimeterReset(bool),altimeterRelativeAltitude(m),altimeterPressure(kPa)
2020-03-19 17:59:20.083 +0100,36598.957845875,0.2671051025390625,0.4038543701171875,-0.88861083984375,36598.95282187501,0.09200039739955024,0.2954708869157963,-0.4132669027206023,-0.06342364102602005,0.01862944662570953,0.0355285070836544,-0.006714314222335815,-0.008677512407302856,-0.00851750373840332,XArbitraryZVertical,-0.2093413821546701,0.1345833112816544,0.01434728967723187,0.968430482760967,0.266676127910614,0.4016033411026001,-0.8761270642280579,36576.79967025,unknown,2,2020-03-19 17:58:57.905 +0100,606329959.1296259,0,-9.7,101.932
2020-03-19 17:59:20.093 +0100,36598.977938875,0.2714996337890625,0.4110260009765625,-0.905029296875,36598.972914875,0.09315817514463626,0.2961707147022659,-0.414070747548302,-0.05231544375419617,0.01339799351990223,0.04150110855698586,-0.0005649924278259277,0.003541171550750732,-0.02103734016418457,XArbitraryZVertical,-0.2098125165200091,0.1347706768432167,0.01477284650248802,0.9682960819681503,0.2671948969364166,0.402339369058609,-0.8756311535835266,36576.79967025,unknown,2,2020-03-19 17:58:57.905 +0100,606329959.1296259,0,-9.7,101.932
2020-03-19 17:59:20.100 +0100,36598.998031875,0.2755126953125,0.4141387939453125,-0.8989105224609375,36598.993008875,0.0943595066061598,0.2969694085358438,-0.4148735826715288,-0.03451213613152504,-0.0007030311971902847,0.03333592414855957,0.00630718469619751,0.01011523604393005,-0.0294184684753418,XArbitraryZVertical,-0.2102870491371672,0.1350007718932421,0.01520874057841615,0.9681543055305371,0.2677995562553406,0.4030742347240448,-0.8751083016395569,36576.79967025,unknown,2,2020-03-19 17:58:57.905 +0100,606329959.1296259,0,-9.7,101.932
2020-03-19 17:59:20.120 +0100,36599.018124875,0.2620086669921875,0.40435791015625,-0.880035400390625,36599.013101875,0.0952089401767529,0.2970699954220084,-0.4152159118338167,-0.0289926566183567,-0.02008164115250111,0.03011569753289223,0.002475351095199585,0.005209088325500488,-0.01470005512237549,XArbitraryZVertical,-0.2105103564670118,0.134947038827464,0.0155829346745373,0.9681073512268759,0.2678471803665161,0.4033875167369843,-0.8749493956565857,36576.79967025,unknown,2,2020-03-19 17:58:57.905 +0100,606329959.1296259,0,-9.7,101.932
2020-03-19 17:59:20.140 +0100,36599.038217875,0.25616455078125,0.400604248046875,-0.8680267333984375,36599.033194875,0.09606140915469427,0.2969664538206561,-0.415433259726126,-0.0367233008146286,-0.01508056372404099,0.03609692305326462,-0.009234011173248291,-0.0008797645568847656,0.003752708435058594,XArbitraryZVertical,-0.2106719247000093,0.1347988241149154,0.01598969613727584,0.9680861857430016,0.2677309215068817,0.4035863876342773,-0.8748932480812073,36576.79967025,unknown,2,2020-03-19 17:58:57.905 +0100,606329959.1296259,0,-9.7,101.932
2020-03-19 17:59:20.161 +0100,36599.058310875,0.2550811767578125,0.40283203125,-0.8698577880859375,36599.053287875,0.09729344766153578,0.2971933495896962,-0.4158997469375749,-0.03965909406542778,-0.008986778557300568,0.0516611710190773,-0.01393979787826538,-0.003748059272766113,0.004122138023376465,XArbitraryZVertical,-0.2109819082915721,0.1347607578325916,0.01652607789981962,0.9680149285131996,0.2678742706775665,0.4040131270885468,-0.8746523261070251,36576.79967025,unknown,2,2020-03-19 17:58:57.905 +0100,606329959.1296259,0,-9.7,101.932
2020-03-19 17:59:20.181 +0100,36599.078403875,0.2560882568359375,0.4008941650390625,-0.8654022216796875,36599.073380875,0.09873448822909812,0.2975943450558928,-0.4161554180982,-0.03682670742273331,-0.003337474539875984,0.06832650303840637,-0.01270374655723572,-0.0002586543560028076,0.006845593452453613,XArbitraryZVertical,-0.2112057299571438,0.1347927603830892,0.01716142321766933,0.9679507139313557,0.2681946754455566,0.4042470157146454,-0.8744460940361023,36576.79967025,unknown,2,2020-03-19 17:58:57.905 +0100,606329959.1296259,0,-9.7,101.932
2020-03-19 17:59:20.201 +0100,36599.098497375,0.2576904296875,0.4047088623046875,-0.8626861572265625,36599.093473375,0.1004096986833082,0.2982946109490068,-0.4164026424142921,-0.03649413585662842,0.00563354603946209,0.07122571766376495,-0.01237118244171143,-0.001781880855560303,0.009186446666717529,XArbitraryZVertical,-0.211444118920012,0.134944921193401,0.01787896617826189,0.9678643883908969,0.2687775790691376,0.4044731259346008,-0.874162495136261,36576.79967025,unknown,2,2020-03-19 17:58:57.905 +0100,606329959.1296259,0,-9.7,101.932
2020-03-19 17:59:20.221 +0100,36599.118590375,0.2650909423828125,0.408477783203125,-0.865020751953125,36599.113566375,0.1021479781105902,0.2991411733151511,-0.4166342830080667,-0.03746921569108963,0.01800903491675854,0.07737039029598236,-0.008643209934234619,0.002568662166595459,0.01256167888641357,XArbitraryZVertical,-0.2116809426773031,0.135161465805283,0.01861254681496699,0.9677686223771039,0.2694898843765259,0.4046849608421326,-0.873845100402832,36576.79967025,unknown,2,2020-03-19 17:58:57.905 +0100,606329959.1296259,0,-9.7,101.932
2020-03-19 17:59:20.241 +0100,36599.138683375,0.272796630859375,0.41510009765625,-0.86785888671875,36599.133660375,0.1040188253870309,0.3001917333048303,-0.4170381353720532,-0.0602179728448391,0.02552335150539875,0.08099149167537689,-0.001120507717132568,0.008363842964172363,0.009558379650115967,XArbitraryZVertical,-0.2120122612997,0.1354553272288298,0.01937490081184148,0.9676400014698116,0.2703594267368317,0.4050542116165161,-0.8734053373336792,36576.79967025,unknown,2,2020-03-19 17:58:57.905 +0100,606329959.1296259,0,-9.7,101.932
2020-03-19 17:59:20.261 +0100,36599.158776375,0.2855682373046875,0.4252777099609375,-0.869476318359375,36599.153753375,0.1060090088168863,0.3013448780138185,-0.4175737305713645,-0.04792406037449837,0.01652097702026367,0.08212167024612427,0.01223447918891907,0.01777726411819458,0.005971789360046387,XArbitraryZVertical,-0.2124168501778277,0.1357801296208396,0.02017328523774075,0.9674894375807596,0.2713019847869873,0.4055438637733459,-0.8728857040405273,36576.79967025,unknown,2,2020-03-19 17:58:57.905 +0100,606329959.1296259,0,-9.7,101.932
2020-03-19 17:59:20.281 +0100,36599.178869375,0.29034423828125,0.4258880615234375,-0.8622589111328125,36599.173846375,0.1082197606829863,0.3022806508269114,-0.4180170796701243,-0.04696321114897728,-0.004175822250545025,0.1034888476133347,0.01281416416168213,0.01613616943359375,0.00389784574508667,XArbitraryZVertical,-0.2127904151125526,0.1359793875527806,0.02110819260853612,0.9673594272581049,0.272065132856369,0.4059490561485291,-0.8724597096443176,36576.79967025,unknown,2,2020-03-19 17:58:57.905 +0100,606329959.1296259,0,-9.7,101.932
2020-03-19 17:59:20.301 +0100,36599.19896237501,0.2841644287109375,0.4264373779296875,-0.8581085205078125,36599.193939375,0.1108635751915306,0.3029436368749182,-0.4181004006671003,-0.02803298644721508,-0.02981817163527012,0.1294742077589035,0.01627427339553833,0.02326226234436035,0.01132965087890625,XArbitraryZVertical,-0.2130175286239321,0.1360150937584721,0.0223097233314452,0.9672775197121006,0.2726334035396576,0.4060252010822296,-0.8722468614578247,36576.79967025,unknown,2,2020-03-19 17:58:57.905 +0100,606329959.1296259,0,-9.7,101.932
2020-03-19 17:59:20.321 +0100,36599.219055375,0.2754974365234375,0.4221649169921875,-0.84722900390625,36599.214032375,0.1140844980683823,0.3034890195904184,-0.4175606916718427,-0.005240095313638449,-0.04311249405145645,0.1746488213539124,0.007752746343612671,0.01841485500335693,0.02291017770767212,XArbitraryZVertical,-0.2129827731606443,0.1359589474096818,0.02385229870214004,0.9672561715078755,0.273174524307251,0.4055319428443909,-0.8723070025444031,36576.79967025,unknown,2,2020-03-19 17:58:57.905 +0100,606329959.1296259,0,-9.7,101.932
2020-03-19 17:59:20.341 +0100,36599.239149375,0.2720489501953125,0.4062347412109375,-0.8466339111328125,36599.23412537501,0.1182547165209344,0.3044830531655763,-0.416694241713554,-0.00999697670340538,-0.0353764109313488,0.2362205237150192,-0.0005131959915161133,0.01015856862068176,0.02838993072509766,XArbitraryZVertical,-0.2128612308230028,0.1360335952792841,0.0258324842621684,0.9672215768085011,0.2741467356681824,0.4047397673130035,-0.8723698854446411,36576.79967025,unknown,2,2020-03-19 17:58:57.905 +0100,606329959.1296259,0,-9.7,101.932
2020-03-19 17:59:20.362 +0100,36599.259242375,0.3151092529296875,0.41595458984375,-0.8605804443359375,36599.254218375,0.1242217748256038,0.3061642515087048,-0.4153571562098191,-0.01853463426232338,-0.03466234356164932,0.2009893357753754,-0.007208138704299927,0.003889650106430054,0.0247504711151123,XArbitraryZVertical,-0.2126462722968106,0.1362719787758863,0.02864684113480527,0.9671560736785354,0.275775820016861,0.4035167396068573,-0.872422993183136,36576.79967025,unknown,2,2020-03-19 17:58:57.905 +0100,606329959.1296259,0,-9.7,101.932
2020-03-19 17:59:20.382 +0100,36599.279335375,0.2999114990234375,0.4101104736328125,-0.8647003173828125,36599.274312375,0.1285071862662958,0.3071309776159138,-0.4144253120359822,0.02144219167530537,-0.08495700359344482,0.2199319303035736,0.003950506448745728,0.005871593952178955,0.0145113468170166,XArbitraryZVertical,-0.2125038998390753,0.136327046178075,0.03069186121151592,0.9671168843774406,0.2767326533794403,0.4026639461517334,-0.8725140690803528,36576.79967025,unknown,2,2020-03-19 17:58:57.905 +0100,606329959.1296259,0,-9.7,101.932
2020-03-19 17:59:20.402 +0100,36599.299428375,0.3116912841796875,0.4049530029296875,-0.87286376953125,36599.294405375,0.1337150876357921,0.3079635192968043,-0.4126831792841996,0.03726619854569435,-0.06284066289663315,0.2631056606769562,0.005041360855102539,-0.00974506139755249,0.009225726127624512,XArbitraryZVertical,-0.2120332573229094,0.1362594157069965,0.03326373748382321,0.9671447059463329,0.2776711881160736,0.4010686874389648,-0.872950553894043,36576.79967025,unknown,2,2020-03-19 17:58:57.905 +0100,606329959.1296259,0,-9.7,101.932
2020-03-19 17:59:20.422 +0100,36599.319521375,0.3107757568359375,0.3991546630859375,-0.877197265625,36599.314498375,0.1386146638185673,0.3084582173421466,-0.4106835227369907,0.04411444440484047,-0.08543189615011215,0.2213644534349442,0.03361776471138,0.005713701248168945,-0.006048977375030518,XArbitraryZVertical,-0.2114126432184805,0.136077066910316,0.03574437542005988,0.967217667449394,0.278345912694931,0.3992361128330231,-0.8735754489898682,36576.79967025,unknown,2,2020-03-19 17:58:57.905 +0100,606329959.1296259,0,-9.7,101.932
2020-03-19 17:59:20.442 +0100,36599.339614375,0.298919677734375,0.397613525390625,-0.8749542236328125,36599.334591375,0.1424956403078307,0.3082722250416648,-0.4087565898944687,0.0692407414317131,-0.09000633656978607,0.1889535337686539,0.02642157673835754,0.002567887306213379,-0.0003524422645568848,XArbitraryZVertical,-0.2107451730029624,0.1356729971842283,0.03779911075925119,0.9673419664278731,0.2784163355827332,0.3974686563014984,-0.874358594417572,36576.79967025,unknown,2,2020-03-19 17:58:57.905 +0100,606329959.1296259,0,-9.7,101.932
2020-03-19 17:59:20.462 +0100,36599.359707375,0.29742431640625,0.3983612060546875,-0.8768768310546875,36599.354684375,0.1462013483532694,0.3079961428396878,-0.4063806924066731,0.07731585949659348,-0.1096106022596359,0.1925876289606094,0.02241018414497375,0.001071840524673462,-9.530782699584961e-05,XArbitraryZVertical,-0.2098468882489697,0.1352694995760676,0.03981583777272344,0.9675128432850526,0.2784604132175446,0.3952873945236206,-0.8753328919410706,36576.79967025,unknown,2,2020-03-19 17:58:57.905 +0100,606329959.1296259,0,-9.7,101.932
2020-03-19 17:59:20.488 +0100,36599.37980137501,0.290802001953125,0.3995208740234375,-0.88189697265625,36599.374777375,0.1498985821782947,0.3074392300428179,-0.4039430476114743,0.06471306085586548,-0.1064930260181427,0.2003099322319031,0.01502332091331482,0.003342658281326294,-0.003510653972625732,XArbitraryZVertical,-0.2089113119763627,0.1347377384494315,0.04186326564336888,0.9677030234450062,0.278263658285141,0.3930470943450928,-0.8764036297798157,36576.79967025,unknown,2,2020-03-19 17:58:57.905 +0100,606329959.1296259,0,-9.7,101.932
2020-03-19 17:59:20.502 +0100,36599.399894375,0.283782958984375,0.4110260009765625,-0.8765411376953125,36599.394870375,0.1537225041650112,0.3071288469591137,-0.4014864547457964,0.07589226961135864,-0.1024562790989876,0.2037660032510757,0.01138800382614136,0.01440715789794922,-0.004047691822052002,XArbitraryZVertical,-0.2079788067144158,0.1343166688462238,0.04394804574365443,0.9678701009113809,0.2782827019691467,0.3907870352268219,-0.8774076700210571,36576.79967025,unknown,2,2020-03-19 17:58:57.905 +0100,606329959.1296259,0,-9.7,101.932
2020-03-19 17:59:20.522 +0100,36599.419987375,0.261077880859375,0.4199066162109375,-0.8640289306640625,36599.414964375,0.1574677239756489,0.3070053266265303,-0.3989066816215912,0.07872659713029861,-0.06663084030151367,0.1807031035423279,-0.004172950983047485,0.02506864070892334,0.007183432579040527,XArbitraryZVertical,-0.2069848143320069,0.134004542371941,0.04598588869337155,0.9680317227265887,0.2784780561923981,0.3884111046791077,-0.8784001469612122,36576.79967025,unknown,2,2020-03-19 17:58:57.905 +0100,606329959.1296259,0,-9.7,101.932
2020-03-19 17:59:20.542 +0100,36599.440080375,0.23876953125,0.4315032958984375,-0.8527984619140625,36599.43505737501,0.1604091316406617,0.3075019324273081,-0.3965946941742849,0.06053983420133591,-0.007609125226736069,0.1501577198505402,-0.03233075141906738,0.04575479030609131,0.02347773313522339,XArbitraryZVertical,-0.2060800015044201,0.134064913397445,0.0475491513167055,0.9681408650263141,0.2791852951049805,0.3862795829772949,-0.8791152834892273,36576.79967025,unknown,2,2020-03-19 17:58:57.905 +0100,606329959.1296259,0,-9.7,101.932
2020-03-19 17:59:20.563 +0100,36599.460173375,0.2494354248046875,0.4502410888671875,-0.8380889892578125,36599.455150375,0.1630141792592115,0.3089948720187924,-0.3947268858316436,0.05773230642080307,0.03673882409930229,0.1363090574741364,-0.03465533256530762,0.05426841974258423,0.03499144315719604,XArbitraryZVertical,-0.2053913582496215,0.1346207998253724,0.0488113680196075,0.9681472122698213,0.2807163596153259,0.3845560848712921,-0.8793832659721375,36576.79967025,unknown,2,2020-03-19 17:58:57.905 +0100,606329959.1296259,0,-9.7,101.932
2020-03-19 17:59:20.583 +0100,36599.480266375,0.273040771484375,0.460784912109375,-0.8296051025390625,36599.475243375,0.1657006411045169,0.310863699950331,-0.3929530321208884,0.05112374946475029,0.03396318852901459,0.1560160368680954,-0.02381125092506409,0.07693296670913696,0.04551982879638672,XArbitraryZVertical,-0.2047646124421203,0.1353472059663121,0.05006803139821286,0.9681144881616847,0.2825675010681152,0.3829180300235748,-0.8795051574707031,36576.79967025,unknown,2,2020-03-19 17:58:57.905 +0100,606329959.1296259,0,-9.7,101.932
2020-03-19 17:59:20.603 +0100,36599.500360375,0.2694244384765625,0.4742431640625,-0.8393402099609375,36599.495336375,0.1684272759729194,0.3122175171113192,-0.3912887154709979,0.05757917836308479,0.01552491169422865,0.1338571310043335,-0.007908850908279419,0.08173641562461853,0.04772543907165527,XArbitraryZVertical,-0.204182360090648,0.1358160999069875,0.05138901069968246,0.9681026155956642,0.2839533090591431,0.3813800513744354,-0.8797271251678467,36576.79967025,unknown,2,2020-03-19 17:58:57.905 +0100,606329959.1296259,0,-9.7,101.932
2020-03-19 17:59:20.623 +0100,36599.520453375,0.27685546875,0.4754791259765625,-0.862152099609375,36599.515429375,0.1700431726146664,0.3129674261992964,-0.3899662245201193,0.07372646033763885,0.02191862836480141,0.06398618221282959,-0.01079869270324707,0.09835547208786011,0.02949768304824829,XArbitraryZVertical,-0.2036748265863873,0.1360883899643727,0.05220605995509965,0.9681276266683028,0.2847679853439331,0.3801571726799011,-0.8799930214881897,36576.79967025,unknown,2,2020-03-19 17:58:57.905 +0100,606329959.1296259,0,-9.7,101.932
2020-03-19 17:59:20.643 +0100,36599.540546375,0.2906341552734375,0.447509765625,-0.8779754638671875,36599.535523375,0.1695689787059892,0.3130294896575229,-0.3888774503303854,0.1003855541348457,0.01551942247897387,-0.03661935776472092,-0.002389878034591675,0.09588372707366943,0.005657613277435303,XArbitraryZVertical,-0.2031198768482623,0.1362277535612563,0.05206196442258107,0.968232391783524,0.2849498987197876,0.3791499137878418,-0.8803686499595642,36576.79967025,unknown,2,2020-03-19 17:58:57.905 +0100,606329959.1296259,0,-9.7,101.932
2020-03-19 17:59:20.663 +0100,36599.56063937501,0.299072265625,0.3848114013671875,-0.8805999755859375,36599.555616375,0.1671747794677456,0.3118751298612903,-0.3881033097233861,0.1133568212389946,-0.03011792525649071,-0.08429380506277084,0.001893460750579834,0.04906895756721497,0.007439970970153809,XArbitraryZVertical,-0.2025543481631743,0.1359548009868395,0.05108493042971647,0.9684411935881364,0.2840234041213989,0.3784334659576416,-0.8809760808944702,36576.79967025,unknown,2,2020-03-19 17:58:57.905 +0100,606329959.1296259,0,-9.7,101.932
2020-03-19 17:59:20.683 +0100,36599.58073237501,0.3009796142578125,0.3473358154296875,-0.905242919921875,36599.575709375,0.1649743341310749,0.3095619470976002,-0.387487066776578,0.1019337773323059,-0.1113708913326263,-0.05948556214570999,0.02726805210113525,-0.03403982520103455,-0.0103602409362793,XArbitraryZVertical,-0.202049692944811,0.1350910622726449,0.050304750592171,0.9687082943209787,0.2820557951927185,0.3778629899024963,-0.8818526268005371,36576.79967025,unknown,2,2020-03-19 17:58:57.905 +0100,606329959.1296259,0,-9.7,101.932
2020-03-19 17:59:20.703 +0100,36599.600825375,0.2826080322265625,0.3460845947265625,-0.9416046142578125,36599.595802375,0.1635929009123725,0.306463614353054,-0.3862374265580582,0.1387687623500824,-0.1349118798971176,-0.01188388466835022,0.01058751344680786,-0.02749627828598022,-0.04184746742248535,XArbitraryZVertical,-0.2012767556653733,0.1337974736995916,0.05005141419699244,0.9690617234376244,0.2794643938541412,0.3767057061195374,-0.8831717967987061,36576.79967025,unknown,2,2020-03-19 17:58:57.905 +0100,606329959.1296259,0,-9.7,101.932
2020-03-19 17:59:20.723 +0100,36599.620918375,0.2808074951171875,0.3335723876953125,-0.959136962890625,36599.61589537501,0.1623308881201953,0.3034481151271357,-0.3839982867414927,0.2102369219064713,-0.1198257058858871,-0.01031591556966305,-0.0008696019649505615,-0.0309295654296875,-0.06605440378189087,XArbitraryZVertical,-0.2000374580571362,0.1325834951795737,0.04992592351054444,0.9694915963405778,0.2770512700080872,0.3746305704116821,-0.8848132491111755,36576.79967025,unknown,2,2020-03-19 17:58:57.905 +0100,606329959.1296259,0,-9.7,101.932
2020-03-19 17:59:20.743 +0100,36599.641012375,0.28631591796875,0.30126953125,-0.9586944580078125,36599.635988375,0.160572704470248,0.3000849146583425,-0.3799289441949944,0.2580212950706482,-0.1560525000095367,-0.01490404270589352,0.01755911111831665,-0.04782909154891968,-0.0721319317817688,XArbitraryZVertical,-0.1978737703561515,0.1313446933744897,0.04973802868651887,0.9701137574377635,0.2745223045349121,0.3708544671535492,-0.8871890902519226,36576.79967025,unknown,2,2020-03-19 17:58:57.905 +0100,606329959.1296259,0,-9.7,101.932
2020-03-19 17:59:20.764 +0100,36599.661105375,0.28564453125,0.271484375,-0.962554931640625,36599.656081375,0.1588135019489426,0.2963957588333407,-0.3746655646458313,0.2595506608486176,-0.1732905060052872,0.01563851907849312,0.0090065598487854,-0.08103716373443604,-0.07151377201080322,XArbitraryZVertical,-0.1951248344056412,0.1300043881201227,0.04966859980576176,0.9708543429893209,0.2718138098716736,0.3659613132476807,-0.8900502920150757,36576.79967025,unknown,2,2020-03-19 17:58:57.905 +0100,606329959.1296259,0,-9.7,101.932
2020-03-19 17:59:20.784 +0100,36599.681198375,0.275177001953125,0.2781829833984375,-0.9554443359375,36599.676175375,0.1581217585567416,0.2923498816968595,-0.3699389378927995,0.201458215713501,-0.2063312530517578,0.04357387870550156,0.01606640219688416,-0.08772733807563782,-0.06827127933502197,XArbitraryZVertical,-0.1926941469438652,0.1283525669859001,0.05009874055188829,0.9715373073391347,0.2687060832977295,0.3615584969520569,-0.8927891850471497,36576.79967025,unknown,2,2020-03-19 17:58:57.905 +0100,606329959.1296259,0,-9.7,101.932
2020-03-19 17:59:20.806 +0100,36599.701291375,0.262420654296875,0.2795257568359375,-0.941864013671875,36599.696268375,0.1578687474257989,0.2878604737353738,-0.366100487268118,0.1539596021175385,-0.2169616371393204,0.04701255261898041,0.003266632556915283,-0.08890670537948608,-0.0528867244720459,XArbitraryZVertical,-0.1907077256955606,0.1263932536713562,0.0507054093731725,0.9721544090995781,0.2650873363018036,0.3579770624637604,-0.895310640335083,36576.79967025,unknown,2,2020-03-19 17:58:57.905 +0100,606329959.1296259,0,-9.7,101.932
2020-03-19 17:59:20.824 +0100,36599.721384375,0.2580413818359375,0.3107452392578125,-0.9337615966796875,36599.716361375,0.1586325542507111,0.2838686864082474,-0.362763668129405,0.1333053261041641,-0.209312304854393,0.1019094586372375,-0.002004712820053101,-0.05554592609405518,-0.03682363033294678,XArbitraryZVertical,-0.1890378441340448,0.124551205167604,0.05171238882367207,0.9726652228849264,0.2618444561958313,0.3548593819141388,-0.8975033760070801,36576.79967025,unknown,2,2020-03-19 17:58:57.905 +0100,606329959.1296259,0,-9.7,101.932
2020-03-19 17:59:20.844 +0100,36599.741477375,0.2606658935546875,0.3334503173828125,-0.9237060546875,36599.736454375,0.1600911933163174,0.2802074188015045,-0.3587048853108581,0.1782189458608627,-0.2118288278579712,0.1271275728940964,6.288290023803711e-05,-0.0263729989528656,-0.03203755617141724,XArbitraryZVertical,-0.1870658432802567,0.1228413239071515,0.05307462638926645,0.9731903826211146,0.2589528858661652,0.3510618507862091,-0.8998327851295471,36576.79967025,unknown,2,2020-03-19 17:58:57.905 +0100,606329959.1296259,0,-9.7,101.932
2020-03-19 17:59:20.864 +0100,36599.76157137501,0.235382080078125,0.33392333984375,-0.90289306640625,36599.756547375,0.1613683564783956,0.2766394250198543,-0.3539344323117689,0.1922037899494171,-0.1805858016014099,0.1075951755046844,-0.01010352373123169,-0.0122891366481781,-0.009911000728607178,XArbitraryZVertical,-0.1847353669329669,0.1212310234916963,0.05438621359195897,0.9737649074421486,0.2561951577663422,0.346591055393219,-0.9023517370223999,36576.79967025,unknown,2,2020-03-19 17:58:57.905 +0100,606329959.1296259,0,-9.7,101.932
2020-03-19 17:59:20.884 +0100,36599.781664375,0.2329254150390625,0.3391571044921875,-0.880035400390625,36599.776640375,0.1622385746964511,0.2738858363785357,-0.3491685840343865,0.1974262744188309,-0.1285044997930527,0.0939188152551651,-0.0241750180721283,-0.01053076982498169,0.01251262426376343,XArbitraryZVertical,-0.1824004839482503,0.1200549147850002,0.05541695525411849,0.9742924677272868,0.2541533708572388,0.3421166837215424,-0.9046337604522705,36576.79967025,unknown,2,2020-03-19 17:58:57.905 +0100,606329959.1296259,0,-9.7,101.932
2020-03-19 17:59:20.904 +0100,36599.801757375,0.24224853515625,0.31689453125,-0.8780975341796875,36599.796734375,0.1632011341078448,0.2718601564446358,-0.3447041344733902,0.1636299639940262,-0.1065317988395691,0.09741054475307465,-0.01457089185714722,-0.005615115165710449,0.0288311243057251,XArbitraryZVertical,-0.1802345985416972,0.1192098754703538,0.05639870421526375,0.9747429142921217,0.2527279555797577,0.337918221950531,-0.9066089987754822,36576.79967025,unknown,2,2020-03-19 17:58:57.905 +0100,606329959.1296259,0,-9.7,101.932
2020-03-19 17:59:20.924 +0100,36599.821850375,0.255645751953125,0.3346710205078125,-0.893646240234375,36599.81682737501,0.1641259050756467,0.2701812623295092,-0.3408849953940014,0.1582072377204895,-0.09127987921237946,0.08757442981004715,-0.002572625875473022,-0.01558327674865723,0.02495229244232178,XArbitraryZVertical,-0.1783873434745063,0.1185048094632567,0.05727974301048327,0.9751172315794522,0.2515481114387512,0.3343212902545929,-0.9082691073417664,36576.79967025,unknown,2,2020-03-19 17:58:57.905 +0100,606329959.1296259,0,-9.7,101.932
2020-03-19 17:59:20.945 +0100,36599.841943375,0.275482177734375,0.340118408203125,-0.9250946044921875,36599.836920375,0.1644235080649726,0.268197785784192,-0.3371169746310919,0.195305347442627,-0.1382052600383759,0.03166099637746811,0.01629239320755005,0.005716264247894287,-0.005706191062927246,XArbitraryZVertical,-0.176517313589896,0.1177046321739736,0.05787504773397614,0.9755191707597513,0.2500781416893005,0.3307677209377289,-0.9099745154380798,36576.79967025,unknown,2,2020-03-19 17:58:57.905 +0100,606329959.1296259,0,-9.7,101.932
2020-03-19 17:59:20.965 +0100,36599.862036375,0.2188873291015625,0.3250579833984375,-0.9170989990234375,36599.857013375,0.1628665324020042,0.2646563657970289,-0.3332863089331457,0.2204568386077881,-0.138836070895195,-0.1061254665255547,0.01093199849128723,-0.00619959831237793,-0.01427584886550903,XArbitraryZVertical,-0.1744618445420695,0.1163086697062042,0.05770201760741171,0.9760665752139344,0.2471836060285568,0.3271502554416656,-0.9120706915855408,36576.79967025,unknown,2,2020-03-19 17:58:57.905 +0100,606329959.1296259,0,-9.7,101.932
2020-03-19 17:59:20.997 +0100,36599.882129375,0.25567626953125,0.3327789306640625,-0.9388885498046875,36599.877106375,0.1602755702421552,0.2628382048932769,-0.3310576122660049,0.1228194460272789,-0.008604912087321281,0.004186860285699368,-0.02038924396038055,-0.02885770797729492,-0.005527257919311523,XArbitraryZVertical,-0.1731755468956782,0.1157584342848154,0.05675410843114008,0.9764165105626962,0.2457137405872345,0.3250433802604675,-0.9132204055786133,36576.79967025,unknown,2,2020-03-19 17:58:57.905 +0100,606329959.1296259,0,-9.7,101.932
2020-03-19 17:59:21.014 +0100,36599.902223375,0.27484130859375,0.31390380859375,-0.97613525390625,36599.897199375,0.1588894404003997,0.2620029982710774,-0.327982998592181,0.2128108590841293,-0.0519493967294693,-0.03982653841376305,0.03396414220333099,0.007163047790527344,-0.04546850919723511,XArbitraryZVertical,-0.1715756913407013,0.1156227923158307,0.05636696274763615,0.9767374691437002,0.2452086210250854,0.3221341967582703,-0.9143863320350647,36576.79967025,unknown,2,2020-03-19 17:58:57.905 +0100,606329959.1296259,0,-9.7,101.932
2020-03-19 17:59:21.026 +0100,36599.922316375,0.26666259765625,0.2755889892578125,-1.001724243164062,36599.917293375,0.1566169020550592,0.2600609435938527,-0.3241750870759614,0.2110866010189056,-0.07824678719043732,-0.07134551554918289,0.02285349369049072,-0.02491995692253113,-0.0720134973526001,XArbitraryZVertical,-0.1695364680866014,0.1150547985871347,0.05569036811163665,0.9771993007886054,0.2437460273504257,0.318526953458786,-0.9160395860671997,36576.79967025,unknown,2,2020-03-19 17:58:57.905 +0100,606329959.1296259,0,-9.7,101.932
2020-03-19 17:59:21.045 +0100,36599.94240937501,0.2707061767578125,0.2537384033203125,-1.03594970703125,36599.937386375,0.1538949521012197,0.2576245461221831,-0.3210116670851192,0.1720115691423416,-0.0940498560667038,-0.09766773134469986,0.02747032046318054,-0.05374953150749207,-0.1015652418136597,XArbitraryZVertical,-0.1677722345025686,0.1142463833938084,0.05478598689435754,0.9776495866713916,0.2417690008878708,0.3155267238616943,-0.9176004528999329,36576.79967025,unknown,2,2020-03-19 17:58:57.905 +0100,606329959.1296259,0,-9.7,101.932
2020-03-19 17:59:21.065 +0100,36599.962502375,0.321746826171875,0.22503662109375,-1.02984619140625,36599.957479375,0.1507670894877196,0.2540974910939479,-0.3182624886909099,0.1644813418388367,-0.1801506727933884,-0.114231288433075,0.0457499623298645,-0.06973996758460999,-0.1231059432029724,XArbitraryZVertical,-0.1661589388956721,0.1129132023568609,0.05374021965006334,0.9781379867222371,0.2387482225894928,0.3129167854785919,-0.9192836284637451,36576.79967025,unknown,2,2020-03-19 17:58:57.905 +0100,606329959.1296259,0,-9.7,101.932
2020-03-19 17:59:21.085 +0100,36599.982595375,0.2523651123046875,0.2173004150390625,-0.986724853515625,36599.977572375,0.1470221920013525,0.2479113145909428,-0.3146941832985661,0.2671818733215332,-0.2894217669963837,-0.1231316849589348,0.06738904118537903,-0.08594104647636414,-0.08619189262390137,XArbitraryZVertical,-0.1640447989851205,0.1103608902097497,0.05265938927142469,0.9788446920438693,0.2333293408155441,0.3095256984233856,-0.9218195676803589,36576.79967025,unknown,2,2020-03-19 17:58:57.905 +0100,606329959.1296259,0,-9.7,101.932
2020-03-19 17:59:21.107 +0100,36600.002688375,0.23968505859375,0.2305145263671875,-0.9856109619140625,36599.99766537501,0.1439951180066167,0.2417129489177348,-0.3091100313301422,0.3301060199737549,-0.236416831612587,-0.02403279393911362,-0.001506373286247253,-0.08430367708206177,-0.0566103458404541,XArbitraryZVertical,-0.1609909826754579,0.107823785533092,0.05204809457283335,0.9796667137377986,0.2280212938785553,0.3042109608650208,-0.9249118566513062,36576.79967025,unknown,2,2020-03-19 17:58:57.905 +0100,606329959.1296259,0,-9.7,101.932
2020-03-19 17:59:21.126 +0100,36600.022782375,0.2403564453125,0.24542236328125,-0.969635009765625,36600.017758375,0.1419224074224129,0.236023169254801,-0.3016763399599366,0.4290646314620972,-0.2828842997550964,-0.005761843174695969,0.03209158778190613,-0.05746901035308838,-0.05237656831741333,XArbitraryZVertical,-0.1570991652837739,0.1055279857272802,0.05196149762790986,0.9805527713145165,0.2232777327299118,0.2971212565898895,-0.9283673763275146,36576.79967025,unknown,2,2020-03-19 17:58:57.905 +0100,606329959.1296259,0,-9.7,101.932
2020-03-19 17:59:21.146 +0100,36600.042875375,0.2065582275390625,0.238128662109375,-0.943817138671875,36600.037852375,0.1397917322660413,0.2297962640999453,-0.2925263840118776,0.4631080329418182,-0.2719383239746094,0.006047444418072701,-0.002070501446723938,-0.04600387811660767,-0.02465331554412842,XArbitraryZVertical,-0.1523490154586905,0.1030330593068042,0.05196980694322705,0.981566626723501,0.2181027233600616,0.2883721888065338,-0.9323479533195496,36576.79967025,unknown,2,2020-03-19 17:58:57.905 +0100,606329959.1296259,0,-9.7,101.932
2020-03-19 17:59:21.166 +0100,36600.062968375,0.1941375732421875,0.2506561279296875,-0.913299560546875,36600.057945375,0.1377620508045844,0.2243753980708032,-0.2835367674349068,0.4222666323184967,-0.2302414029836655,-0.01217603404074907,-0.01320633292198181,-0.0373387336730957,0.007966101169586182,XArbitraryZVertical,-0.1477008019249821,0.1009029122345208,0.05192704178779792,0.9825001568251722,0.2136135846376419,0.2797529399394989,-0.9360061287879944,36576.79967025,unknown,2,2020-03-19 17:58:57.905 +0100,606329959.1296259,0,-9.7,101.932
2020-03-19 17:59:21.186 +0100,36600.083061375,0.1827392578125,0.273406982421875,-0.897674560546875,36600.078038375,0.1352453472853368,0.2195781834521418,-0.275696464114549,0.384753406047821,-0.1868085414171219,-0.05380856245756149,-0.02424533665180206,-0.0120568573474884,0.03687936067581177,XArbitraryZVertical,-0.1436060354043121,0.09905205890745608,0.05150554834073084,0.9833174005462443,0.2095922380685806,0.2722171545028687,-0.9391319751739502,36576.79967025,unknown,2,2020-03-19 17:58:57.905 +0100,606329959.1296259,0,-9.7,101.932
2020-03-19 17:59:21.207 +0100,36600.103156,0.1811065673828125,0.286895751953125,-0.8852386474609375,36600.098133,0.1321430719808021,0.21538887690715,-0.2682486663653589,0.382389634847641,-0.1716827750205994,-0.09365205466747284,-0.02375791966915131,0.01936355233192444,0.04879790544509888,XArbitraryZVertical,-0.1396906480359424,0.09751092629498549,0.0507094437649495,0.9840765922487644,0.2060837149620056,0.2650431394577026,-0.9419562816619873,36576.79967025,unknown,2,2020-03-19 17:58:57.905 +0100,606329959.1296259,0,-9.7,101.932
2020-03-19 17:59:21.226 +0100,36600.123249,0.1563262939453125,0.275482177734375,-0.876068115234375,36600.118226,0.128075438210269,0.2110947680537092,-0.2610402269809169,0.3792724907398224,-0.1552205383777618,-0.1373149454593658,-0.03487668931484222,0.02210965752601624,0.06180226802825928,XArbitraryZVertical,-0.1358447980723581,0.09595887630097172,0.04941317350049998,0.984833230842542,0.2024320214986801,0.2580856680870056,-0.9446761608123779,36576.79967025,unknown,2,2020-03-19 17:58:57.905 +0100,606329959.1296259,0,-9.7,101.932
2020-03-19 17:59:21.246 +0100,36600.143343,0.1435089111328125,0.2595977783203125,-0.8601226806640625,36600.13831900001,0.1233705893510371,0.2071381104910536,-0.2548127805012027,0.2997243404388428,-0.1285160779953003,-0.1803532242774963,-0.04901164770126343,0.0188232958316803,0.07594537734985352,XArbitraryZVertical,-0.1324623265321186,0.09456009662034766,0.04770768180882802,0.985513132735567,0.1990193724632263,0.2520642280578613,-0.9470242261886597,36576.79967025,unknown,2,2020-03-19 17:58:57.905 +0100,606329959.1296259,0,-9.7,101.932
2020-03-19 17:59:21.266 +0100,36600.163436,0.1216583251953125,0.249908447265625,-0.8388214111328125,36600.158412,0.118286266113019,0.2036664857633009,-0.2510479645393716,0.1658021658658981,-0.08471253514289856,-0.2221176773309708,-0.0623164176940918,0.00319652259349823,0.100639820098877,XArbitraryZVertical,-0.1302898165146731,0.09331941422723737,0.04563510082977428,0.9860190830859763,0.1959210187196732,0.2484192103147507,-0.9486321210861206,36576.79967025,unknown,2,2020-03-19 17:58:57.905 +0100,606329959.1296259,0,-9.7,101.932
2020-03-19 17:59:21.286 +0100,36600.183529,0.1214447021484375,0.244659423828125,-0.8193511962890625,36600.178506,0.1130598156840073,0.2012410797062821,-0.2508598971768122,-0.04191477224230766,-0.03230226412415504,-0.2668907344341278,-0.07386405766010284,-0.0007106661796569824,0.1195142865180969,XArbitraryZVertical,-0.1299005931165757,0.09247004236433425,0.04322595201992795,0.9862589454801262,0.1936289668083191,0.2482370287179947,-0.9491502642631531,36576.79967025,unknown,2,2020-03-19 17:58:57.905 +0100,606329959.1296259,0,-9.7,101.932
2020-03-19 17:59:21.306 +0100,36600.203622,0.1102447509765625,0.2306060791015625,-0.7817535400390625,36600.198599,0.1076642765798547,0.1996529705566141,-0.2554813719672797,-0.3304252624511719,0.01686556078493595,-0.34040167927742,-0.07656723260879517,-0.01481318473815918,0.1478303074836731,XArbitraryZVertical,-0.1318943857618394,0.09188513712212072,0.04042430216812012,0.9861677165735319,0.1918917894363403,0.2527111768722534,-0.9483219981193542,36576.79967025,unknown,2,2020-03-19 17:58:57.905 +0100,606329959.1296259,0,-9.7,101.932
2020-03-19 17:59:21.326 +0100,36600.223715,0.1099090576171875,0.23638916015625,-0.765838623046875,36600.218692,0.1017378587741765,0.1994220227070318,-0.267939779267371,-0.7895073294639587,0.1151873916387558,-0.4740959405899048,-0.08465126156806946,-0.04100745916366577,0.1700904369354248,XArbitraryZVertical,-0.1377503865742022,0.09176839191282711,0.03686198839502776,0.9855174594686255,0.1910342127084732,0.26474529504776,-0.9452067613601685,36576.79967025,unknown,2,2020-03-19 17:58:57.905 +0100,606329959.1296259,0,-9.7,101.932
2020-03-19 17:59:21.346 +0100,36600.243808,0.120849609375,0.243316650390625,-0.73577880859375,36600.238785,0.09489296943209953,0.2007448937497477,-0.2912597308291838,-1.387739062309265,0.2103354185819626,-0.6367806196212769,-0.07428808510303497,-0.03731372952461243,0.1939718723297119,XArbitraryZVertical,-0.1489250310548492,0.0921837317471525,0.03216564796547555,0.9840166696512268,0.1910011917352676,0.2871591150760651,-0.9386469721794128,36576.79967025,unknown,2,2020-03-19 17:58:57.905 +0100,606329959.1296259,0,-9.7,101.932
2020-03-19 17:59:21.366 +0100,36600.263902,0.1229248046875,0.3275299072265625,-0.7639617919921875,36600.258878,0.08752909230371585,0.2041500957987628,-0.3282101665039372,-2.045333623886108,0.3560333549976349,-0.7743473649024963,-0.06941691040992737,-0.06579017639160156,0.1858888864517212,XArbitraryZVertical,-0.1667617177008285,0.09332231147146644,0.02630705140789589,0.9812183701094949,0.1919131577014923,0.3223492503166199,-0.9269629716873169,36576.79967025,unknown,2,2020-03-19 17:58:57.905 +0100,606329959.1296259,0,-9.7,101.932
2020-03-19 17:59:21.387 +0100,36600.28399500001,0.186981201171875,0.541229248046875,-0.82598876953125,36600.278971,0.08028215874080488,0.2103911526481055,-0.3739688690140824,-2.197631120681763,0.4855425357818604,-0.7824555635452271,-0.05404400825500488,0.09192949533462524,0.1213560700416565,XArbitraryZVertical,-0.188860495215306,0.0956694504477882,0.01970908478472071,0.9771338720094145,0.1944082528352737,0.3653128445148468,-0.9103581309318542,36576.79967025,unknown,2,2020-03-19 17:58:57.905 +0100,606329959.1296259,0,-9.7,101.932
2020-03-19 17:59:21.407 +0100,36600.304088,0.2108917236328125,0.547943115234375,-0.8499755859375,36600.299065,0.07330549589123786,0.2162852158028361,-0.4205678411585541,-2.229083061218262,0.3674929440021515,-0.8615801930427551,0.02293847501277924,0.1454446315765381,0.04123115539550781,XArbitraryZVertical,-0.2112467974369943,0.09787908211071136,0.01311365296356885,0.9724312661508868,0.1959017962217331,0.4082788825035095,-0.8915889263153076,36576.79967025,unknown,2,2020-03-19 17:58:57.905 +0100,606329959.1296259,0,-9.7,101.932
2020-03-19 17:59:21.427 +0100,36600.324181,0.1721038818359375,0.5775909423828125,-0.8363037109375,36600.31915800001,0.06438955524548637,0.2193976084153261,-0.4701103685529507,-2.41834831237793,0.3332347869873047,-0.9667789936065674,-0.01101896166801453,0.10528564453125,0.02288711071014404,XArbitraryZVertical,-0.2348039059045105,0.09896154073827443,0.005631835257950496,0.9669757241935193,0.1940315663814545,0.4529846906661987,-0.8701474666595459,36576.79967025,unknown,2,2020-03-19 17:58:57.905 +0100,606329959.1296259,0,-9.7,101.932
2020-03-19 17:59:21.447 +0100,36600.344274,0.1573028564453125,0.65875244140625,-0.825775146484375,36600.339251,0.05476195783159504,0.2217250094776436,-0.5231406342137104,-2.514144420623779,0.3651920855045319,-1.01933479309082,-0.02527943253517151,0.1052977740764618,0.01988232135772705,XArbitraryZVertical,-0.2598398167469469,0.0997959201684656,-0.002315423057224233,0.9604783673317355,0.1905003637075424,0.4996031820774078,-0.8450480699539185,36576.79967025,unknown,2,2020-03-19 17:58:57.905 +0100,606329959.1296259,0,-9.7,101.932
2020-03-19 17:59:21.467 +0100,36600.364367,0.1656646728515625,0.7407379150390625,-0.812957763671875,36600.359344,0.04385605304820656,0.2233996540269658,-0.5762925647914826,-2.413223505020142,0.3564813435077667,-1.066043734550476,-0.0247391015291214,0.1639243960380554,-0.003256678581237793,XArbitraryZVertical,-0.2846798810157384,0.1006543723403405,-0.01077747650832823,0.9532627390157675,0.1857638657093048,0.5449190735816956,-0.8176521062850952,36576.79967025,unknown,2,2020-03-19 17:58:57.905 +0100,606329959.1296259,0,-9.7,101.932
2020-03-19 17:59:21.510 +0100,36600.384461,0.14947509765625,0.7500457763671875,-0.78485107421875,36600.379437,0.03025958974043877,0.2225625988390899,-0.6269757597778572,-2.27330470085144,0.3320024013519287,-1.14286470413208,-0.01589229702949524,0.1684094071388245,-0.01043218374252319,XArbitraryZVertical,-0.308034136892769,0.1009907670375288,-0.01993919090637582,0.9457897357102297,0.1787481606006622,0.5866984128952026,-0.7898316979408264,36576.79967025,unknown,2,2020-03-19 17:58:57.905 +0100,606329959.1296259,0,-9.7,101.932
2020-03-19 17:59:21.512 +0100,36600.404554,0.135345458984375,0.6701202392578125,-0.7726593017578125,36600.39953,0.01372749538183726,0.2194600679144381,-0.676632285611798,-2.334702730178833,0.3528055846691132,-1.227402329444885,-0.03531086444854736,0.1005859971046448,-0.006472349166870117,XArbitraryZVertical,-0.3306042707509195,0.1010355873438468,-0.02990972123515572,0.9378689006311278,0.1697397083044052,0.626170814037323,-0.760985255241394,36576.79967025,unknown,2,2020-03-19 17:58:57.905 +0100,606329959.1296259,0,-9.7,101.932
2020-03-19 17:59:21.527 +0100,36600.424647,0.11651611328125,0.6551055908203125,-0.7193145751953125,36600.419624,-0.004705524992719482,0.2146877104312117,-0.7306097863189848,-2.605026245117188,0.3556521236896515,-1.288211226463318,-0.02896837890148163,-0.0187077522277832,-0.0262380838394165,XArbitraryZVertical,-0.3549415044232875,0.1009036994090426,-0.0404580465702153,0.9285462066187127,0.1586670130491257,0.667323887348175,-0.7276699542999268,36576.79967025,unknown,2,2020-03-19 17:58:57.905 +0100,606329959.1296259,0,-9.7,101.932
2020-03-19 17:59:21.547 +0100,36600.44474,0.069915771484375,0.7339019775390625,-0.6660614013671875,36600.439717,-0.02444374814719526,0.2088604993392316,-0.7874592646487287,-2.564569711685181,0.4455460608005524,-1.278861045837402,-0.05834682285785675,-0.02822381258010864,0.004305899143218994,XArbitraryZVertical,-0.3803403390432469,0.1009204350085795,-0.05121231479268692,0.917896272146696,0.1463127583265305,0.7085626721382141,-0.6903125643730164,36576.79967025,unknown,2,2020-03-19 17:58:57.905 +0100,606329959.1296259,0,-9.7,101.932
2020-03-19 17:59:21.567 +0100,36600.46483300001,0.0754547119140625,0.786346435546875,-0.64581298828125,36600.45981,-0.04499433876161577,0.203464365011461,-0.8404920864576583,-2.275005578994751,0.4914962351322174,-1.177579879760742,-0.06543019413948059,0.02189993858337402,-0.005708813667297363,XArbitraryZVertical,-0.4036872365297462,0.1018270152325331,-0.06185491327378877,0.9071063072508465,0.1347957849502563,0.7449714541435242,-0.6533357501029968,36576.79967025,unknown,2,2020-03-19 17:58:57.905 +0100,606329959.1296259,0,-9.7,101.932
2020-03-19 17:59:21.587 +0100,36600.484926,0.056396484375,0.8562774658203125,-0.638641357421875,36600.479903,-0.06606527142009602,0.1979894898383585,-0.8851991473683185,-1.791337013244629,0.5767993330955505,-1.02915096282959,-0.05813132226467133,0.04071217775344849,-0.02008992433547974,XArbitraryZVertical,-0.4230110113480375,0.1033367112905239,-0.07200426720162809,0.8973285576632855,0.1245367676019669,0.7740411162376404,-0.6207664012908936,36576.79967025,unknown,2,2020-03-19 17:58:57.905 +0100,606329959.1296259,0,-9.7,101.932
2020-03-19 17:59:21.608 +0100,36600.50502,0.090423583984375,0.850799560546875,-0.6342620849609375,36600.499996,-0.08619920628603647,0.1940619109754899,-0.9198399505412451,-1.368777394294739,0.5904557108879089,-0.8697351217269897,-0.03731130063533783,0.05507636070251465,-0.04878556728363037,XArbitraryZVertical,-0.4376377980446004,0.1057662927365373,-0.08138972784211677,0.8891920128639109,0.1168546453118324,0.795504629611969,-0.5945733189582825,36576.79967025,unknown,2,2020-03-19 17:58:57.905 +0100,606329959.1296259,0,-9.7,101.932
2020-03-19 17:59:21.628 +0100,36600.525113,0.071807861328125,0.84332275390625,-0.5987396240234375,36600.52008900001,-0.1057716363891725,0.1898992403555578,-0.9464400957869504,-1.01466977596283,0.5697762370109558,-0.7709593772888184,-0.02591817080974579,0.0423998236656189,-0.04356622695922852,XArbitraryZVertical,-0.4486067225715302,0.1082534486859333,-0.0899883996318875,0.8825731647207583,0.110344372689724,0.8113396167755127,-0.5740664005279541,36576.79967025,unknown,2,2020-03-19 17:58:57.905 +0100,606329959.1296259,0,-9.7,101.932
2020-03-19 17:59:21.648 +0100,36600.545206,0.0580291748046875,0.8298797607421875,-0.55426025390625,36600.540183,-0.124730564237413,0.1863030865948013,-0.9665158018533836,-0.7860724329948425,0.6205676198005676,-0.6790752410888672,-0.04673904925584793,0.01668339967727661,-0.01519644260406494,XArbitraryZVertical,-0.4566190781154624,0.1110397199847305,-0.09808631247523363,0.8772390159502216,0.1052405834197998,0.8229110836982727,-0.5583384037017822,36576.79967025,unknown,2,2020-03-19 17:58:57.905 +0100,606329959.1296259,0,-9.7,101.932
2020-03-19 17:59:21.668 +0100,36600.565299,0.0905303955078125,0.8019866943359375,-0.5345306396484375,36600.560276,-0.1431581628468965,0.1836167328952094,-0.9854078599393801,-0.9554972648620605,0.6194788813591003,-0.7048739790916443,-0.02796225249767303,-0.01785922050476074,0.001270771026611328,XArbitraryZVertical,-0.4640348804061316,0.114254225815874,-0.1060002858837025,0.8719986199317347,0.1008833944797516,0.8334975242614746,-0.543235182762146,36576.79967025,unknown,2,2020-03-19 17:58:57.905 +0100,606329959.1296259,0,-9.7,101.932
2020-03-19 17:59:21.688 +0100,36600.585392,0.09844970703125,0.78173828125,-0.510345458984375,36600.580369,-0.1625989671442812,0.1793871594275964,-1.011940758328196,-1.512129068374634,0.5900565981864929,-0.8140833973884583,0.00538557767868042,-0.04926830530166626,-0.0001911520957946777,XArbitraryZVertical,-0.4747510131177632,0.1172921389987278,-0.1140180755078944,0.8647855314375019,0.09460469335317612,0.8478624820709229,-0.521708071231842,36576.79967025,unknown,2,2020-03-19 17:58:57.905 +0100,606329959.1296259,0,-9.7,101.932
2020-03-19 17:59:21.708 +0100,36600.605485,0.079315185546875,0.850067138671875,-0.4800262451171875,36600.600462,-0.1827663900893343,0.1743210832885138,-1.050544698194972,-2.030199289321899,0.6608275175094604,-0.8566880226135254,0.004877917468547821,-0.07337272167205811,-0.007463157176971436,XArbitraryZVertical,-0.4905879036366587,0.1205870610371229,-0.1221229986338685,0.8543231597817228,0.0862165093421936,0.8676941394805908,-0.4895645380020142,36576.79967025,unknown,2,2020-03-19 17:58:57.905 +0100,606329959.1296259,0,-9.7,101.932
2020-03-19 17:59:21.728 +0100,36600.625579,0.1262664794921875,0.975433349609375,-0.4998321533203125,36600.620555,-0.2023882977314325,0.1722204471062653,-1.095541212697564,-2.137326240539551,0.8190703392028809,-0.8186373710632324,0.01020944118499756,0.03923964500427246,-0.03191864490509033,XArbitraryZVertical,-0.508784291701311,0.1254604036265774,-0.1304816882483073,0.8416488702800399,0.07841314375400543,0.8891760110855103,-0.4507964551448822,36576.79967025,unknown,2,2020-03-19 17:58:57.905 +0100,606329961.6972452,0,-9.68,101.9316
2020-03-19 17:59:21.748 +0100,36600.645672,0.1841583251953125,1.0137939453125,-0.488494873046875,36600.640648,-0.2236280726573307,0.1687925053521881,-1.138761188671279,-1.919387221336365,0.6932567358016968,-0.8425475358963013,0.09982393682003021,0.1053828597068787,-0.08660906553268433,XArbitraryZVertical,-0.5259151168210603,0.1304942663044567,-0.1388042291400749,0.8289257508076726,0.07034163177013397,0.9081155061721802,-0.412769079208374,36576.79967025,unknown,2,2020-03-19 17:58:57.905 +0100,606329961.6972452,0,-9.68,101.9316
2020-03-19 17:59:21.768 +0100,36600.66576500001,0.1497955322265625,0.9425201416015625,-0.4349365234375,36600.660742,-0.2526813987521238,0.1542952771291519,-1.178571245067033,-1.883233308792114,0.5208368897438049,-0.9451550841331482,0.1056071370840073,0.05768394470214844,-0.08036845922470093,XArbitraryZVertical,-0.5416243807221516,0.1333826029109322,-0.1469332925635993,0.8168614284321097,0.05874489992856979,0.9240608215332031,-0.3777042329311371,36576.79967025,unknown,2,2020-03-19 17:58:57.905 +0100,606329961.6972452,0,-9.68,101.9316
2020-03-19 17:59:21.788 +0100,36600.685858,0.1265411376953125,0.868133544921875,-0.37841796875,36600.680835,-0.2914596090707096,0.1272574937915365,-1.222242515068729,-2.234275579452515,0.3910796344280243,-1.026666402816772,0.1017036139965057,-0.04430443048477173,-0.07390069961547852,XArbitraryZVertical,-0.5589929288480092,0.1346785788312708,-0.1547887121185873,0.8033859922423018,0.04334617778658867,0.9398676156997681,-0.3387771844863892,36576.79967025,unknown,2,2020-03-19 17:58:57.905 +0100,606329961.6972452,0,-9.68,101.9316
2020-03-19 17:59:21.809 +0100,36600.705951,0.0787811279296875,0.84716796875,-0.3103485107421875,36600.70092800001,-0.3402877019948053,0.08796177213058373,-1.272597470208041,-2.58325982093811,0.3109622597694397,-1.043288826942444,0.07578307390213013,-0.09521597623825073,-0.05250972509384155,XArbitraryZVertical,-0.5790881469604395,0.1353707051942007,-0.1618045387226818,0.7874967129496764,0.02580978907644749,0.9558672308921814,-0.2926633656024933,36576.79967025,unknown,2,2020-03-19 17:58:57.905 +0100,606329961.6972452,0,-9.68,101.9316
2020-03-19 17:59:21.829 +0100,36600.726044,0.037078857421875,0.884613037109375,-0.2295074462890625,36600.721021,-0.406692134794339,0.02978419711683486,-1.329095658489033,-2.89587664604187,0.2724547386169434,-1.050554990768433,0.05137424170970917,-0.1207029223442078,-0.03022623062133789,XArbitraryZVertical,-0.6015624642216559,0.1360088743293668,-0.167949055992667,0.769036673634358,0.007127928547561169,0.9709323048591614,-0.2392483800649643,36576.79967025,unknown,2,2020-03-19 17:58:57.905 +0100,606329961.6972452,0,-9.68,101.9316
2020-03-19 17:59:21.849 +0100,36600.746138,0.0069580078125,0.960296630859375,-0.1727142333984375,36600.741114,-0.5099302267408068,-0.06581704063989365,-1.387603171603301,-2.908178329467773,0.2658119201660156,-0.9996257424354553,0.0287659764289856,-0.05915486812591553,-0.01464009284973145,XArbitraryZVertical,-0.6248369156822389,0.1367146534324161,-0.173440665695852,0.7488700045623704,-0.01198125537484884,0.9832670092582703,-0.1817758679389954,36576.79967025,unknown,2,2020-03-19 17:58:57.905 +0100,606329961.6972452,0,-9.68,101.9316
2020-03-19 17:59:21.869 +0100,36600.766231,-0.0167999267578125,1.004425048828125,-0.1313323974609375,36600.761207,-0.6846686770607452,-0.2331944649791869,-1.440578332293332,-2.6644287109375,0.2670865058898926,-0.8966222405433655,0.02547502517700195,-0.0006643533706665039,-0.02372419834136963,XArbitraryZVertical,-0.6464607210068833,0.1375522081554708,-0.1783131484107979,0.7289529320067123,-0.03000672161579132,0.991533637046814,-0.1263358592987061,36576.79967025,unknown,2,2020-03-19 17:58:57.905 +0100,606329961.6972452,0,-9.68,101.9316
2020-03-19 17:59:21.889 +0100,36600.786324,-0.0527191162109375,0.999908447265625,-0.111083984375,36600.781301,-0.992584169678565,-0.5340049090731515,-1.480771155740413,-2.240824460983276,0.2737888693809509,-0.7254503965377808,0.02224650979042053,0.013153076171875,-0.04465758800506592,XArbitraryZVertical,-0.6649122775111824,0.13855626247376,-0.1825486025513556,0.710893751066343,-0.04576005041599274,0.99595046043396,-0.07738765329122543,36576.79967025,unknown,2,2020-03-19 17:58:57.905 +0100,606329961.6972452,0,-9.68,101.9316
2020-03-19 17:59:21.909 +0100,36600.806417,-0.0490264892578125,0.95074462890625,-0.0923309326171875,36600.801394,-1.470473640610953,-1.00473926396309,-1.501737766343797,-1.846868395805359,0.2751101553440094,-0.5494129061698914,0.007535696029663086,-0.02009886503219604,-0.06515663862228394,XArbitraryZVertical,-0.6796271606281565,0.1400121779563744,-0.1861489452127054,0.6955947476969534,-0.05824028700590134,0.9976164102554321,-0.03700702637434006,36576.79967025,unknown,2,2020-03-19 17:58:57.905 +0100,606329961.6972452,0,-9.68,101.9316
2020-03-19 17:59:21.938 +0100,36600.82651,-0.074981689453125,0.8911895751953125,-0.0752716064453125,36600.821487,-1.99380912009306,-1.521506257459365,-1.503225169369945,-1.542896389961243,0.2737990617752075,-0.3670147061347961,-0.002919986844062805,-0.08007586002349854,-0.08104526996612549,XArbitraryZVertical,-0.6915264700068581,0.1418724259309536,-0.1888118627967683,0.6826517745519299,-0.06743787229061127,0.9977179169654846,-0.003326712176203728,36576.79967025,unknown,2,2020-03-19 17:58:57.905 +0100,606329961.6972452,0,-9.68,101.9316
2020-03-19 17:59:21.949 +0100,36600.84660300001,-0.0783843994140625,0.8580169677734375,-0.04437255859375,36600.84158,-2.369926738005091,-1.890911766624973,-1.494094910091037,-1.241756200790405,0.2989552617073059,-0.1567793637514114,-0.005131751298904419,-0.1271473169326782,-0.08646619319915771,XArbitraryZVertical,-0.7008097880990644,0.1446438342416708,-0.1905951360120134,0.6720247645311839,-0.07273339480161667,0.9970598816871643,0.02411239594221115,36576.79967025,unknown,2,2020-03-19 17:58:57.905 +0100,606329961.6972452,0,-9.68,101.9316
2020-03-19 17:59:21.970 +0100,36600.866697,-0.082000732421875,0.82928466796875,-0.0159454345703125,36600.861673,-2.611376355383727,-2.125349503893881,-1.483636142848041,-0.9809445142745972,0.3185660541057587,0.05075928941369057,-0.008972674608230591,-0.1513921022415161,-0.07631552219390869,XArbitraryZVertical,-0.7077249952054737,0.1484720912388522,-0.1915050235393678,0.6636318195407118,-0.07400417327880859,0.9962039589881897,0.04583726078271866,36576.79967025,unknown,2,2020-03-19 17:58:57.905 +0100,606329961.6972452,0,-9.68,101.9316
2020-03-19 17:59:22.004 +0100,36600.88679,-0.0764007568359375,0.871337890625,0.016326904296875,36600.881767,-2.784122095522662,-2.290485650455887,-1.475557787143161,-0.7426193952560425,0.3759419023990631,0.2338890582323074,-0.008367478847503662,-0.1547914147377014,-0.05765259265899658,XArbitraryZVertical,-0.7125986805995126,0.1534400399512927,-0.1916886151691395,0.6572021849027772,-0.07151184976100922,0.9954682588577271,0.06268145143985748,36576.79967025,unknown,2,2020-03-19 17:58:57.905 +0100,606329961.6972452,0,-9.68,101.9316
2020-03-19 17:59:22.009 +0100,36600.906883,-0.0695953369140625,0.9090118408203125,0.0334320068359375,36600.90186000001,-2.9155214898256,-2.41322545298761,-1.472123831130284,-0.3875639140605927,0.4125151634216309,0.4189388751983643,-0.005163565278053284,-0.1029300689697266,-0.04929256439208984,XArbitraryZVertical,-0.7150659658826871,0.1594965770534514,-0.191530985014037,0.6531136911466229,-0.06557577848434448,0.9951358437538147,0.07351698726415634,36576.79967025,unknown,2,2020-03-19 17:58:57.905 +0100,606329961.6972452,0,-9.68,101.9316
2020-03-19 17:59:22.029 +0100,36600.926976,-0.079620361328125,0.9740753173828125,0.0624237060546875,36600.921953,-3.02429559114966,-2.512508702507494,-1.474748787105866,-0.08458616584539413,0.4902651011943817,0.5650326013565063,-0.02007932960987091,-0.06204760074615479,-0.02604973316192627,XArbitraryZVertical,-0.7149013660487686,0.1663934511457645,-0.1911452506809282,0.6516845458114831,-0.05642792209982872,0.9953909516334534,0.07754148542881012,36576.79967025,unknown,2,2020-03-19 17:58:57.905 +0100,606329961.6972452,0,-9.68,101.9316
2020-03-19 17:59:22.050 +0100,36600.947069,-0.063201904296875,1.091720581054688,0.053131103515625,36600.942046,-3.132631221087413,-2.609125815739442,-1.483110077928391,0.26996049284935,0.6274201273918152,0.7146198749542236,-0.02893702685832977,0.03212577104568481,-0.01149106025695801,XArbitraryZVertical,-0.7122278490807634,0.1745171138296562,-0.1910926569943712,0.6525019674449591,-0.04445750266313553,0.9961580038070679,0.07544946670532227,36576.79967025,unknown,2,2020-03-19 17:58:57.905 +0100,606329961.6972452,0,-9.68,101.9316
2020-03-19 17:59:22.070 +0100,36600.967163,-0.039031982421875,1.178802490234375,0.0231170654296875,36600.962139,3.044025175248357,-2.701416101083931,-1.500977165808972,0.9490798115730286,0.748578667640686,0.8465484976768494,-0.01911795139312744,0.1515848636627197,-0.0228501558303833,XArbitraryZVertical,-0.7056041273477922,0.1835170948971692,-0.1919311824936664,0.6569677602081444,-0.02972523868083954,0.9975636601448059,0.06311141699552536,36576.79967025,unknown,2,2020-03-19 17:58:57.905 +0100,606329961.6972452,0,-9.68,101.9316
2020-03-19 17:59:22.090 +0100,36600.987256,-0.018310546875,1.159072875976562,-0.0116729736328125,36600.982232,2.91910531422831,-2.810821014099887,-1.531212790124294,1.532897353172302,0.774075448513031,0.8947444558143616,-0.01229475438594818,0.1775653958320618,-0.03229033946990967,XArbitraryZVertical,-0.6940632683841844,0.1923259194378315,-0.1938404323567083,0.6661176563186046,-0.01285166665911674,0.9992166757583618,0.03742615878582001,36576.79967025,unknown,2,2020-03-19 17:58:57.905 +0100,606329961.6972452,0,-9.68,101.9316
2020-03-19 17:59:22.110 +0100,36601.007349,-0.018829345703125,1.128387451171875,-0.052490234375,36601.002326,1.688426293414935,2.257808918803997,-1.56495291012813,1.769072294235229,0.8180944323539734,0.8651685118675232,-0.02378840744495392,0.1446491479873657,-0.03686559200286865,XArbitraryZVertical,-0.6794527314277926,0.2005062459060954,-0.1966924802881681,0.6778299232918893,0.00453178072348237,0.9999829530715942,0.003717537736520171,36576.79967025,unknown,2,2020-03-19 17:58:57.905 +0100,606329961.6972452,0,-9.68,101.9316
2020-03-19 17:59:22.130 +0100,36601.027442,-0.00823974609375,1.054595947265625,-0.1007080078125,36601.022419,0.01099030479636979,0.59738658865197,-1.532618506433696,1.719590663909912,0.8536384701728821,0.7982848882675171,-0.03866490721702576,0.09807378053665161,-0.04355299472808838,XArbitraryZVertical,-0.6639304060424244,0.2083702815446975,-0.2002854260474972,0.689683923168692,0.02146809734404087,0.9992713332176208,-0.03155648335814476,36576.79967025,unknown,2,2020-03-19 17:58:57.905 +0100,606329961.6972452,0,-9.68,101.9316
2020-03-19 17:59:22.150 +0100,36601.04753500001,-0.004547119140625,1.023361206054688,-0.1295318603515625,36601.042512,-0.06442922486592688,0.5391320038862534,-1.497834696661524,1.388668417930603,0.8561961650848389,0.7033389210700989,-0.04098010063171387,0.0270380973815918,-0.05546039342880249,XArbitraryZVertical,-0.6496355099316666,0.2160910433841567,-0.2039630504338438,0.6997695555192088,0.03742458671331406,0.9973394870758057,-0.06255672872066498,36576.79967025,unknown,2,2020-03-19 17:58:57.905 +0100,606329961.6972452,0,-9.68,101.9316
2020-03-19 17:59:22.170 +0100,36601.067628,0.0194549560546875,1.05401611328125,-0.1502838134765625,36601.062605,-0.07583508778752676,0.5447293215526815,-1.470315395604979,1.028605341911316,0.8246898651123047,0.6330024600028992,-0.04331351816654205,0.03850030899047852,-0.05680567026138306,XArbitraryZVertical,-0.6379521192361699,0.2238759351181569,-0.2073774582792673,0.7070298578967605,0.0519801639020443,0.9949560165405273,-0.08579331636428833,36576.79967025,unknown,2,2020-03-19 17:58:57.905 +0100,606329961.6972452,0,-9.68,101.9316
2020-03-19 17:59:22.190 +0100,36601.087719875,0.0295867919921875,1.067947387695312,-0.16217041015625,36601.08269800001,-0.06947014479764695,0.5665263491391691,-1.448173084068608,0.8214341998100281,0.7118884325027466,0.5787239670753479,-0.03307072818279266,0.08056187629699707,-0.05686295032501221,XArbitraryZVertical,-0.6283970553590689,0.2313300286146586,-0.2100151620772832,0.7123884107507584,0.06564784049987793,0.9924911856651306,-0.1032071188092232,36576.79967025,unknown,2,2020-03-19 17:58:57.905 +0100,606329961.6972452,0,-9.68,101.9316
2020-03-19 17:59:22.210 +0100,36601.107812875,0.012359619140625,1.051467895507812,-0.1725006103515625,36601.102788875,-0.06332411899780072,0.5856354259395872,-1.429043658048968,0.7540561556816101,0.5811303853988647,0.5487044453620911,-0.05866514146327972,0.07159340381622314,-0.05374693870544434,XArbitraryZVertical,-0.6201474907753821,0.2377999526516857,-0.2119412750188039,0.716902563892944,0.07808908820152283,0.9899699091911316,-0.1177365407347679,36576.79967025,unknown,2,2020-03-19 17:58:57.905 +0100,606329961.6972452,0,-9.68,101.9316
2020-03-19 17:59:22.230 +0100,36601.127905875,-0.0060272216796875,1.0194091796875,-0.176605224609375,36601.122882875,-0.05954133397865302,0.599913263347719,-1.40968143532192,0.8153234124183655,0.4710427820682526,0.5811203122138977,-0.08902743458747864,0.04744511842727661,-0.03964048624038696,XArbitraryZVertical,-0.6120088417619187,0.2433955562600993,-0.2130204344916832,0.7216828685924245,0.09056802839040756,0.9870490431785583,-0.1324075609445572,36576.79967025,unknown,2,2020-03-19 17:58:57.905 +0100,606329961.6972452,0,-9.68,101.9316
2020-03-19 17:59:22.250 +0100,36601.147998875,0.0005645751953125,0.9863433837890625,-0.200714111328125,36601.142975875,-0.05628562803616214,0.6114429589206739,-1.388766050869351,0.8703052997589111,0.3586218953132629,0.6507810354232788,-0.1081456542015076,0.02763962745666504,-0.03608757257461548,XArbitraryZVertical,-0.6034888837974567,0.248368640716772,-0.2131458694812862,0.7271059249812185,0.1039182916283607,0.9834781885147095,-0.1482283771038055,36576.79967025,unknown,2,2020-03-19 17:58:57.905 +0100,606329961.6972452,0,-9.68,101.9316
2020-03-19 17:59:22.271 +0100,36601.168091875,0.007080078125,0.951171875,-0.2310638427734375,36601.163068875,-0.05173903973687223,0.6217159032855522,-1.366062267301693,0.9168013334274292,0.2227800637483597,0.7294751405715942,-0.1146439760923386,-0.01664233207702637,-0.05573391914367676,XArbitraryZVertical,-0.5945590322065801,0.2527202269470799,-0.2120900383804828,0.733246115317951,0.1184121519327164,0.9791150689125061,-0.1652640849351883,36576.79967025,unknown,2,2020-03-19 17:58:57.905 +0100,606329961.6972452,0,-9.68,101.9316
2020-03-19 17:59:22.291 +0100,36601.18818487501,0.0260009765625,1.015151977539062,-0.25244140625,36601.183161875,-0.0430695097155177,0.6340706675332671,-1.341396536962224,0.9713495373725891,0.1724513471126556,0.8550595641136169,-0.1258189380168915,0.001715779304504395,-0.05701637268066406,XArbitraryZVertical,-0.5851626840874189,0.256881954044989,-0.2097469279271925,0.7400016065539462,0.1347139626741409,0.9738030433654785,-0.1831925958395004,36576.79967025,unknown,2,2020-03-19 17:58:57.905 +0100,606329961.6972452,0,-9.68,101.9316
2020-03-19 17:59:22.311 +0100,36601.208278875,0.0809173583984375,1.01531982421875,-0.255615234375,36601.203254875,-0.03580062184615494,0.6433973354650356,-1.313808645243623,1.143877625465393,0.03885704278945923,0.9205083250999451,-0.09263573586940765,0.0532652735710144,-0.05500137805938721,XArbitraryZVertical,-0.5747665657136107,0.260707264223436,-0.2064965157977142,0.7476859030907012,0.1524797081947327,0.9671599864959717,-0.203350231051445,36576.79967025,unknown,2,2020-03-19 17:58:57.905 +0100,606329961.6972452,0,-9.68,101.9316
2020-03-19 17:59:22.331 +0100,36601.228371875,0.0822296142578125,0.9671630859375,-0.225616455078125,36601.223348875,-0.03526801944977399,0.6428557948344721,-1.283028678033717,1.25999116897583,-0.1310559213161469,0.9273102283477783,-0.0838535875082016,0.03351509571075439,-0.01431554555892944,XArbitraryZVertical,-0.5632105597969604,0.2630854550528928,-0.2024249948949472,0.7567060618059515,0.1701409220695496,0.958879828453064,-0.2271598130464554,36576.79967025,unknown,2,2020-03-19 17:58:57.905 +0100,606329961.6972452,0,-9.68,101.9316
2020-03-19 17:59:22.351 +0100,36601.248464875,0.0666046142578125,0.8775787353515625,-0.1981201171875,36601.24344187501,-0.03432955576339682,0.6395610851402602,-1.252872052043458,1.058855414390564,-0.2661308944225311,0.8625084161758423,-0.1078821569681168,-0.02987879514694214,0.03953564167022705,XArbitraryZVertical,-0.552087292603864,0.2641834553982838,-0.1974688723942679,0.765775919545709,0.1865705400705338,0.9498863220214844,-0.2508134543895721,36576.79967025,unknown,2,2020-03-19 17:58:57.905 +0100,606329961.6972452,0,-9.68,101.9316
2020-03-19 17:59:22.371 +0100,36601.268557875,0.0628509521484375,0.8578338623046875,-0.20526123046875,36601.263534875,-0.0235685736316438,0.6438546831839411,-1.230247279800747,0.5096698999404907,-0.3192927837371826,0.7730948328971863,-0.1406535655260086,-0.0782584547996521,0.07131224870681763,XArbitraryZVertical,-0.5443314134502144,0.2648336376666945,-0.1916959299402624,0.7725407184561305,0.2004972994327545,0.9425714015960693,-0.2671329081058502,36576.79967025,unknown,2,2020-03-19 17:58:57.905 +0100,606329961.6972452,0,-9.68,101.9316
2020-03-19 17:59:22.391 +0100,36601.288650875,0.05615234375,0.8377227783203125,-0.20819091796875,36601.283627875,0.004606472523142788,0.6634318558350355,-1.218648932616431,-0.1889783293008804,-0.3627831339836121,0.6869254112243652,-0.149373933672905,-0.09595787525177002,0.06483888626098633,XArbitraryZVertical,-0.5417275120886319,0.265810325129388,-0.1845967021709753,0.7757578978301828,0.2124066948890686,0.9386342167854309,-0.2717523574829102,36576.79967025,unknown,2,2020-03-19 17:58:57.905 +0100,606329961.6972452,0,-9.68,101.9316
2020-03-19 17:59:22.412 +0100,36601.308744875,0.03887939453125,0.862396240234375,-0.214569091796875,36601.303720875,0.05331660589048138,0.7016591874838094,-1.217942382563141,-0.7790135145187378,-0.3821312189102173,0.6644165515899658,-0.1778090298175812,-0.0841783881187439,0.05019283294677734,XArbitraryZVertical,-0.5445038638251559,0.2674777751030246,-0.175989820114327,0.7752410978167612,0.2230652570724487,0.9383902549743652,-0.2639423608779907,36576.79967025,unknown,2,2020-03-19 17:58:57.905 +0100,606329961.6972452,0,-9.68,101.9316
2020-03-19 17:59:22.432 +0100,36601.328837875,0.024627685546875,0.8644256591796875,-0.2071685791015625,36601.323813875,0.1201381984947977,0.7567596193125828,-1.223252097156462,-1.075291037559509,-0.3759951591491699,0.696528434753418,-0.2042836546897888,-0.07339632511138916,0.03629207611083984,XArbitraryZVertical,-0.5507774993714953,0.269867982358484,-0.1660622655721629,0.7721649682001076,0.2338384836912155,0.9402119517326355,-0.2476308345794678,36576.79967025,unknown,2,2020-03-19 17:58:57.905 +0100,606329961.6972452,0,-9.68,101.9316
2020-03-19 17:59:22.452 +0100,36601.348930875,0.0164642333984375,0.842254638671875,-0.1727294921875,36601.343907875,0.1956162239588957,0.8204200220865743,-1.227344287815237,-0.9580406546592712,-0.3453910946846008,0.8172413110733032,-0.22736756503582,-0.09757858514785767,0.03144192695617676,XArbitraryZVertical,-0.5574114384959988,0.2729079130860429,-0.1553505541172832,0.7685571105668438,0.2463022768497467,0.9415978193283081,-0.2296275198459625,36576.79967025,unknown,2,2020-03-19 17:58:57.905 +0100,606329961.6972452,0,-9.68,101.9316
2020-03-19 17:59:22.472 +0100,36601.369023875,0.07440185546875,1.090744018554688,-0.1552734375,36601.364000875,0.2666943653279097,0.8829165949136745,-1.224481441082454,-0.6383800506591797,-0.08691209554672241,0.9708923101425171,-0.2486503124237061,0.01821118593215942,0.07852339744567871,XArbitraryZVertical,-0.5614799504301307,0.2774653400886371,-0.1449945951116695,0.7659828274236637,0.2622442543506622,0.9406299591064453,-0.2155064940452576,36576.79967025,unknown,2,2020-03-19 17:58:57.905 +0100,606329961.6972452,0,-9.68,101.9316
2020-03-19 17:59:22.516 +0100,36601.38911687501,0.21173095703125,1.273849487304688,-0.2089080810546875,36601.384093875,0.3186206541063981,0.9306110584730714,-1.211064397284596,0.1225222423672676,-0.05937275290489197,1.15238630771637,-0.1216290593147278,0.2587664127349854,0.01790702342987061,XArbitraryZVertical,-0.5607674597081932,0.2835493808574717,-0.1355987512778434,0.7659978530875405,0.2823176980018616,0.9359912276268005,-0.2102792114019394,36576.79967025,unknown,2,2020-03-19 17:58:57.905 +0100,606329961.6972452,0,-9.68,101.9316
2020-03-19 17:59:22.518 +0100,36601.409209875,0.24603271484375,1.347030639648438,-0.2127227783203125,36601.404186875,0.3314750951641697,0.9415347047594577,-1.185032975727665,0.9965159893035889,-0.03978639841079712,1.187402725219727,-0.0738372802734375,0.3994259238243103,0.00759434700012207,XArbitraryZVertical,-0.5529565934193034,0.2889871147537159,-0.1278557398312856,0.7709593905182007,0.3041973114013672,0.9265114665031433,-0.2214509099721909,36576.79967025,unknown,2,2020-03-19 17:58:57.905 +0100,606329961.6972452,0,-9.68,101.9316
2020-03-19 17:59:22.532 +0100,36601.429303875,0.2968597412109375,1.308059692382812,-0.230926513671875,36601.42427987501,0.3146138435068528,0.9248314333488882,-1.151752223419438,1.425867319107056,-0.1099133491516113,1.04806911945343,-0.0514872670173645,0.4297016859054565,0.02430248260498047,XArbitraryZVertical,-0.5399755038181265,0.2931886417316428,-0.1223460248864199,0.7794218110490155,0.3249075412750244,0.9134783148765564,-0.2449337542057037,36576.79967025,unknown,2,2020-03-19 17:58:57.905 +0100,606329961.6972452,0,-9.68,101.9316
2020-03-19 17:59:22.552 +0100,36601.449396875,0.3019866943359375,1.162582397460938,-0.217864990234375,36601.444372875,0.2864192488059669,0.8956994976897805,-1.119263597304829,1.421308875083923,-0.2460498362779617,0.7539005279541016,-0.03455725312232971,0.3473312854766846,0.04375660419464111,XArbitraryZVertical,-0.5259951835257888,0.2949188766238204,-0.1185095437477579,0.7888645974239382,0.3406312167644501,0.8997793793678284,-0.2727038562297821,36576.79967025,unknown,2,2020-03-19 17:58:57.905 +0100,606329961.6972452,0,-9.68,101.9316
2020-03-19 17:59:22.572 +0100,36601.469489875,0.2765350341796875,1.005401611328125,-0.20147705078125,36601.464466875,0.2597098242871946,0.8662734577514304,-1.094841539270081,0.9783691167831421,-0.2858518362045288,0.3773242235183716,-0.06091177463531494,0.1913392543792725,0.09029877185821533,XArbitraryZVertical,-0.5148516492017043,0.2941948048418427,-0.1162620145705647,0.7967812623260621,0.3491024374961853,0.8888556361198425,-0.296754390001297,36576.79967025,unknown,2,2020-03-19 17:58:57.905 +0100,606329961.6972452,0,-9.68,101.9316
2020-03-19 17:59:22.593 +0100,36601.489582875,0.2813873291015625,0.9217376708984375,-0.2095489501953125,36601.484559875,0.2453189367042311,0.8481662752462067,-1.083033466203041,0.2928299605846405,-0.2538034617900848,0.1006498858332634,-0.08141154050827026,0.06116074323654175,0.1056580543518066,XArbitraryZVertical,-0.5093904943844738,0.2924857354942877,-0.1149416803953613,0.8011004432214888,0.3515205085277557,0.8833835124969482,-0.3099468350410461,36576.79967025,unknown,2,2020-03-19 17:58:57.905 +0100,606329961.6972452,0,-9.68,101.9316
2020-03-19 17:59:22.613 +0100,36601.509675875,0.262451171875,0.9408721923828125,-0.1822967529296875,36601.504652875,0.2428398374824046,0.8410151266244925,-1.080973444425249,0.008078315295279026,-0.2300290167331696,-0.008974581025540829,-0.07085216045379639,0.05567336082458496,0.111268162727356,XArbitraryZVertical,-0.5086650971516518,0.2905637661632581,-0.1136974912800311,0.8024370680670462,0.3506503701210022,0.8824161887168884,-0.3136650323867798,36576.79967025,unknown,2,2020-03-19 17:58:57.905 +0100,606329961.6972452,0,-9.68,101.9316
2020-03-19 17:59:22.632 +0100,36601.529768875,0.2682037353515625,0.9249420166015625,-0.171630859375,36601.524745875,0.2413699549034021,0.8360513187321725,-1.080699065865313,0.1098045781254768,-0.13069087266922,0.004878483712673187,-0.09084802865982056,0.04757839441299438,0.1454094052314758,XArbitraryZVertical,-0.5086301759161269,0.2889866496284363,-0.1129697008765925,0.8031312817041188,0.3492688536643982,0.8822870850563049,-0.3155641257762909,36576.79967025,unknown,2,2020-03-19 17:58:57.905 +0100,606329961.6972452,0,-9.68,101.9316
2020-03-19 17:59:22.653 +0100,36601.549862875,0.298248291015625,0.896087646484375,-0.180023193359375,36601.544838875,0.2344586051208519,0.8281442747430663,-1.076882974215205,0.402172327041626,-0.05108301341533661,0.05977369099855423,-0.06402531266212463,0.02852261066436768,0.1438137292861938,XArbitraryZVertical,-0.5066396919169954,0.2881335615012492,-0.1129773959662027,0.8046933907758638,0.3492406904697418,0.880484402179718,-0.3205905556678772,36576.79967025,unknown,2,2020-03-19 17:58:57.905 +0100,606329961.6972452,0,-9.68,101.9316
2020-03-19 17:59:22.673 +0100,36601.56995587501,0.33160400390625,0.8387908935546875,-0.2138214111328125,36601.564932875,0.2199835858141488,0.815195482038052,-1.067495149486385,0.755829930305481,0.02716906554996967,0.1663808226585388,-0.03429073095321655,-0.005424976348876953,0.1337448358535767,XArbitraryZVertical,-0.5017215806592454,0.2879335864620534,-0.1136977245105552,0.8077391508316052,0.3510612547397614,0.8759950995445251,-0.3307394087314606,36576.79967025,unknown,2,2020-03-19 17:58:57.905 +0100,606329961.6972452,0,-9.68,101.9316
2020-03-19 17:59:22.695 +0100,36601.590048875,0.350006103515625,0.753265380859375,-0.228057861328125,36601.585025875,0.1984252652429981,0.7976830255676343,-1.051017387734805,1.122611522674561,0.1091475859284401,0.2857038676738739,-0.01390314102172852,-0.06988382339477539,0.1245923638343811,XArbitraryZVertical,-0.4932816959695153,0.2885096151182269,-0.1148997171041481,0.812547535713245,0.3554996848106384,0.8679289817810059,-0.3468707501888275,36576.79967025,unknown,2,2020-03-19 17:58:57.905 +0100,606329961.6972452,0,-9.68,101.9316
2020-03-19 17:59:22.713 +0100,36601.610141875,0.3680572509765625,0.652496337890625,-0.2608795166015625,36601.605118875,0.1725410127075896,0.7789219931542238,-1.028215410325411,1.386985301971436,0.2591724693775177,0.4154689311981201,-0.008052408695220947,-0.1546013951301575,0.1242413520812988,XArbitraryZVertical,-0.481726710761371,0.2901799429501489,-0.1166142020398001,0.8186183800136352,0.3627409040927887,0.8563789129257202,-0.3674699664115906,36576.79967025,unknown,2,2020-03-19 17:58:57.905 +0100,606329961.6972452,0,-9.68,101.9316
2020-03-19 17:59:22.733 +0100,36601.630234875,0.412384033203125,0.5276641845703125,-0.2801055908203125,36601.62521187501,0.1472026364969128,0.763758972013816,-1.000666796261378,1.479801893234253,0.3442848920822144,0.5305384993553162,0.01751405000686646,-0.2484061717987061,0.1119116544723511,XArbitraryZVertical,-0.4680015846591,0.2933647109722413,-0.1184167811921414,0.8251600902780241,0.3733072280883789,0.8418310880661011,-0.389823317527771,36576.79967025,unknown,2,2020-03-19 17:58:57.905 +0100,606329961.6972452,0,-9.68,101.9316
2020-03-19 17:59:22.753 +0100,36601.650328875,0.413299560546875,0.376129150390625,-0.27569580078125,36601.645304875,0.1259950353833715,0.7535039332921992,-0.9714233806169891,1.397665023803711,0.406937450170517,0.639150083065033,0.03205430507659912,-0.3800002336502075,0.1346313953399658,XArbitraryZVertical,-0.4537176418240843,0.2973774214705628,-0.1196401760927654,0.8315005524945511,0.3859732747077942,0.8256894946098328,-0.4114139378070831,36576.79967025,unknown,2,2020-03-19 17:58:57.905 +0100,606329961.6972452,0,-9.68,101.9316
2020-03-19 17:59:22.773 +0100,36601.670421875,0.422149658203125,0.3148956298828125,-0.28228759765625,36601.665397875,0.1133589393392496,0.753238728052527,-0.9421786561853683,1.226755499839783,0.619304895401001,0.8512228727340698,0.007101207971572876,-0.4742205142974854,0.1541995406150818,XArbitraryZVertical,-0.4399350872349951,0.3032834479606273,-0.1197103641809271,0.8367470628223965,0.4022134840488434,0.8088411092758179,-0.428952544927597,36576.79967025,unknown,2,2020-03-19 17:58:57.905 +0100,606329961.6972452,0,-9.68,101.9316
2020-03-19 17:59:22.795 +0100,36601.690514875,0.4820404052734375,0.232635498046875,-0.2974395751953125,36601.685491875,0.1121664282534854,0.7662978413698343,-0.9120137282838296,0.9874216914176941,0.7485468983650208,1.167999982833862,0.03028842806816101,-0.5165116190910339,0.1489753723144531,XArbitraryZVertical,-0.4266083187552179,0.3122207866419091,-0.1176919532197561,0.8406379755234439,0.4245125651359558,0.790738046169281,-0.4410470426082611,36576.79967025,unknown,2,2020-03-19 17:58:57.905 +0100,606329961.6972452,0,-9.68,101.9316
2020-03-19 17:59:22.813 +0100,36601.710607875,0.4938507080078125,0.1870574951171875,-0.3063507080078125,36601.705584875,0.1235207338460831,0.7911629779022502,-0.8813115278418291,0.6988793611526489,0.8747113943099976,1.482858180999756,0.03727805614471436,-0.5696130990982056,0.1466166973114014,XArbitraryZVertical,-0.4143541833649701,0.3235762039111957,-0.1125350145626785,0.8431754518989959,0.4524043202400208,0.7715738415718079,-0.4472180902957916,36576.79967025,unknown,2,2020-03-19 17:58:57.905 +0100,606329961.6972452,0,-9.68,101.9316
2020-03-19 17:59:22.833 +0100,36601.730700875,0.52685546875,0.1568603515625,-0.32745361328125,36601.725677875,0.1464531418909594,0.8278180154022934,-0.8494399071853828,0.4315917193889618,1.050692081451416,1.837660312652588,0.0253414511680603,-0.5860896706581116,0.1326168775558472,XArbitraryZVertical,-0.4030684796414359,0.3378747812655706,-0.1042531295902751,0.8441017632961809,0.4863590896129608,0.7509106397628784,-0.4467528760433197,36576.79967025,unknown,2,2020-03-19 17:58:57.905 +0100,606329961.6972452,0,-9.68,101.9316
2020-03-19 17:59:22.853 +0100,36601.750794875,0.6121063232421875,0.0902252197265625,-0.367462158203125,36601.745770875,0.1793024289117389,0.8756873450136154,-0.8142442784501979,0.1701454222202301,1.271967768669128,2.248583078384399,0.03010499477386475,-0.5801472067832947,0.08670574426651001,XArbitraryZVertical,-0.3920330772592496,0.3556617175794093,-0.09275350299594912,0.8433335900694283,0.5271580815315247,0.7272070646286011,-0.4396296143531799,36576.79967025,unknown,2,2020-03-19 17:58:57.905 +0100,606329961.6972452,0,-9.68,101.9316
2020-03-19 17:59:22.873 +0100,36601.77088787501,0.6979522705078125,0.014892578125,-0.354095458984375,36601.765863875,0.2253099360454495,0.934501444252172,-0.7783653063883864,-0.5603907108306885,1.299468755722046,2.505533218383789,0.08852261304855347,-0.6630426645278931,0.05980616807937622,XArbitraryZVertical,-0.3834633073010965,0.376025615503823,-0.07696423343056075,0.8400221031298543,0.5727137327194214,0.7021163702011108,-0.4231212437152863,36576.79967025,unknown,2,2020-03-19 17:58:57.905 +0100,606329961.6972452,0,-9.68,101.9316
2020-03-19 17:59:22.894 +0100,36601.790980875,0.7565460205078125,0.07598876953125,-0.3315887451171875,36601.785957875,0.2890772851547375,1.005198598134081,-0.7466296529154582,-1.445180416107178,1.378267765045166,2.693349361419678,0.1022881865501404,-0.634739100933075,0.05303585529327393,XArbitraryZVertical,-0.3808735643135752,0.397815647857989,-0.05631816647951651,0.8327702569428754,0.6196779012680054,0.6791688203811646,-0.3933560848236084,36576.79967025,unknown,2,2020-03-19 17:58:57.905 +0100,606329961.6972452,0,-9.68,101.9316
2020-03-19 17:59:22.913 +0100,36601.811073875,0.8622283935546875,0.128021240234375,-0.3124542236328125,36601.806050875,0.3719653013998701,1.08832134763474,-0.7180989756498005,-2.511991500854492,1.359945178031921,2.820278644561768,0.1421961188316345,-0.568571925163269,0.01116865873336792,XArbitraryZVertical,-0.3850714994933992,0.4207382362414913,-0.03065924390934568,0.8208284030105608,0.6670957803726196,0.6579542756080627,-0.3493985533714294,36576.79967025,unknown,2,2020-03-19 17:58:57.905 +0100,606329961.6972452,0,-9.68,101.9316
2020-03-19 17:59:22.934 +0100,36601.831166875,0.9945068359375,0.2185211181640625,-0.2359161376953125,36601.82614387501,0.4785338934708633,1.182500516579912,-0.6928260993396592,-3.710465431213379,1.077037811279297,2.80308198928833,0.2276979088783264,-0.4799348115921021,0.009364664554595947,XArbitraryZVertical,-0.3981104908921179,0.4425469488403969,0.001211576270872983,0.8035289556759877,0.7121632695198059,0.6387142539024353,-0.2913204729557037,36576.79967025,unknown,2,2020-03-19 17:58:57.905 +0100,606329961.6972452,0,-9.68,101.9316
2020-03-19 17:59:22.954 +0100,36601.851259875,1.032379150390625,0.3477020263671875,-0.12762451171875,36601.846236875,0.6061224756658263,1.281385049454612,-0.6674006458776508,-4.653136730194092,0.7560650110244751,2.842075824737549,0.2416577935218811,-0.3620986938476562,0.04981732368469238,XArbitraryZVertical,-0.4191713626975286,0.460672074833692,0.03919289142365579,0.7813708913342133,0.7527685761451721,0.6189464330673218,-0.2241532206535339,36576.79967025,unknown,2,2020-03-19 17:58:57.905 +0100,606329961.6972452,0,-9.68,101.9316
2020-03-19 17:59:22.974 +0100,36601.871353875,1.08990478515625,0.536163330078125,-0.0686187744140625,36601.866329875,0.7402364662162103,1.37503510794342,-0.6358295897704427,-4.822616577148438,0.4857986867427826,2.772974014282227,0.281950831413269,-0.1419289112091064,0.05809271335601807,XArbitraryZVertical,-0.443271244379651,0.4746155597939519,0.08060083912796913,0.7561442600549511,0.7892117500305176,0.5938451886177063,-0.1565013527870178,36576.79967025,unknown,2,2020-03-19 17:58:57.905 +0100,606329961.6972452,0,-9.68,101.9316
2020-03-19 17:59:23.003 +0100,36601.891446875,1.19219970703125,0.5833587646484375,-0.05206298828125,36601.886423875,0.8664919896180854,1.454219101166159,-0.5939765186504284,-4.616061687469482,0.07677310705184937,2.932233333587646,0.3092989921569824,0.007535636425018311,0.04288893938064575,XArbitraryZVertical,-0.465274938447775,0.4851015721449862,0.1233652740874688,0.730052477805245,0.823096752166748,0.5596608519554138,-0.09639139473438263,36576.79967025,unknown,2,2020-03-19 17:58:57.905 +0100,606329961.6972452,0,-9.68,101.9316
2020-03-19 17:59:23.014 +0100,36601.911539875,1.144699096679688,0.5917205810546875,-0.00390625,36601.906516875,0.9848787403338831,1.5159318266445,-0.5439643431514548,-4.786139965057373,-0.0909702256321907,2.891965866088867,0.3332562446594238,-0.04956340789794922,-0.01231807470321655,XArbitraryZVertical,-0.4849771104130406,0.4912598068666277,0.1679926548345554,0.7037324627143264,0.8543761372566223,0.5175321698188782,-0.04692200943827629,36576.79967025,unknown,2,2020-03-19 17:58:57.905 +0100,606329961.6972452,0,-9.68,101.9316
2020-03-19 17:59:23.034 +0100,36601.931632875,1.27789306640625,0.6279449462890625,-0.001007080078125,36601.926609875,1.085411357554729,1.560456679102693,-0.4909109386808214,-3.72888708114624,-0.5458924174308777,2.877905607223511,0.3780564069747925,0.2272371053695679,0.01793205738067627,XArbitraryZVertical,-0.5003022188843236,0.495114617638352,0.2096952366371212,0.6786655866289188,0.8818565011024475,0.4714294373989105,-0.009118410758674145,36576.79967025,unknown,2,2020-03-19 17:58:57.905 +0100,606329961.6972452,0,-9.68,101.9316
2020-03-19 17:59:23.054 +0100,36601.95172587501,1.174362182617188,0.644775390625,0.0300445556640625,36601.946702875,1.156231179928072,1.579804762275176,-0.4311231159286704,-2.580355644226074,-0.572299599647522,2.989130973815918,0.2934082746505737,0.2437271475791931,0.02144241333007812,XArbitraryZVertical,-0.5052468043350657,0.4988162779366576,0.2485116565132572,0.6589004883824786,0.9084600210189819,0.4178914129734039,0.008184025064110756,36576.79967025,unknown,2,2020-03-19 17:58:57.905 +0100,606329961.6972452,0,-9.68,101.9316
2020-03-19 17:59:23.074 +0100,36601.97181987501,1.13226318359375,0.6567535400390625,0.0519866943359375,36601.966795875,1.198700909101185,1.587763060338923,-0.3685137867670386,-1.395222187042236,-0.2433997839689255,3.246703386306763,0.2155802249908447,0.2930581271648407,0.01607286930084229,XArbitraryZVertical,-0.5015049388614754,0.5063657185244902,0.2809145588291909,0.6427856943721284,0.9327293634414673,0.3602294027805328,0.01582688838243484,36576.79967025,unknown,2,2020-03-19 17:58:57.905 +0100,606329961.6972452,0,-9.68,101.9316
2020-03-19 17:59:23.094 +0100,36601.991912875,1.228805541992188,0.63494873046875,0.096038818359375,36601.986888875,1.214458769959843,1.592076586452583,-0.3002902369881776,-0.2009751945734024,0.08927784115076065,3.465100526809692,0.2203291058540344,0.3549423217773438,0.0556715726852417,XArbitraryZVertical,-0.489086570651681,0.5205358310115885,0.3068835018252506,0.6290145982424711,0.9550344944000244,0.2957974672317505,0.02032645046710968,36576.79967025,unknown,2,2020-03-19 17:58:57.905 +0100,606329961.6972452,0,-9.68,101.9316
2020-03-19 17:59:23.114 +0100,36602.012005875,1.193832397460938,0.61566162109375,0.135009765625,36602.00698287501,1.203951004405078,1.59275483958543,-0.2305707671190332,1.067189812660217,0.255919337272644,3.478111028671265,0.2551015019416809,0.3961906731128693,0.09481394290924072,XArbitraryZVertical,-0.4684004110398893,0.5397118666987127,0.3255929372830949,0.6191134266682478,0.9733014702796936,0.2285332232713699,0.02137568779289722,36576.79967025,unknown,2,2020-03-19 17:58:57.905 +0100,606329961.6972452,0,-9.68,101.9316
2020-03-19 17:59:23.135 +0100,36602.032098875,1.140243530273438,0.5366363525390625,0.1746826171875,36602.027075875,1.16899916044399,1.594948900020891,-0.1622418797092612,2.148150205612183,0.6552620530128479,3.392562627792358,0.1504074931144714,0.4073156118392944,0.1335091590881348,XArbitraryZVertical,-0.4407591785735345,0.5636025937714746,0.3358015824398956,0.612634246966838,0.9865797758102417,0.1615310460329056,0.02383307367563248,36576.79967025,unknown,2,2020-03-19 17:58:57.905 +0100,606329961.6972452,0,-9.68,101.9316
2020-03-19 17:59:23.155 +0100,36602.052191875,1.180221557617188,0.5184173583984375,0.149017333984375,36602.047168875,1.11399601745422,1.605203051465815,-0.09570065473462082,3.072647094726562,1.037096858024597,3.395967483520508,0.1548627614974976,0.4320631623268127,0.1367413997650146,XArbitraryZVertical,-0.4079569141926201,0.5921928937195118,0.3376994365705115,0.6073203279103943,0.9948351979255676,0.09555464237928391,0.03424253314733505,36576.79967025,unknown,2,2020-03-19 17:58:57.905 +0100,606329961.6972452,0,-9.68,101.9316
2020-03-19 17:59:23.175 +0100,36602.072284875,1.237319946289062,0.544219970703125,0.049957275390625,36602.067261875,1.04109668046476,1.624693777851179,-0.03106441897542326,3.860324382781982,1.34632408618927,3.328381538391113,0.215627133846283,0.4909588098526001,0.05897176265716553,XArbitraryZVertical,-0.3702564076759523,0.6243659807787432,0.3322574169597987,0.6022311428093752,0.9980661273002625,0.03105942346155643,0.0538453720510006,36576.79967025,unknown,2,2020-03-19 17:58:57.905 +0100,606329961.6972452,0,-9.68,101.9316
2020-03-19 17:59:23.195 +0100,36602.092380375,1.251434326171875,0.5626220703125,-0.032379150390625,36602.087356375,0.9521743527091961,1.65340886011582,0.02902765640374129,4.524472236633301,1.477635145187378,3.243224143981934,0.256372332572937,0.5985428094863892,-0.08578646183013916,XArbitraryZVertical,-0.3284041887204303,0.6583256060103673,0.319869212194889,0.5970274120906603,0.9961696267127991,-0.02902358025312424,0.08248382806777954,36576.79967025,unknown,2,2020-03-19 17:58:57.905 +0100,606329961.6972452,0,-9.68,101.9316
2020-03-19 17:59:23.248 +0100,36602.112473375,1.246536254882812,0.524444580078125,-0.01068115234375,36602.107450375,0.8515081049055381,1.688088094615376,0.0820637647371297,4.863858222961426,1.353829026222229,2.982628583908081,0.2673785090446472,0.6284962892532349,-0.1479319334030151,XArbitraryZVertical,-0.283573167329185,0.6913037360530924,0.3021095691974647,0.591958795665024,0.9897869825363159,-0.08197169005870819,0.1166291907429695,36576.79967025,unknown,2,2020-03-19 17:58:57.905 +0100,606329961.6972452,0,-9.68,101.9316
2020-03-19 17:59:23.251 +0100,36602.132566375,1.162200927734375,0.4508514404296875,0.09814453125,36602.12754337501,0.7461396984373239,1.724365965926029,0.1232132145660112,4.843421936035156,1.185728073120117,2.436070203781128,0.2421395778656006,0.6288076639175415,-0.1006362438201904,XArbitraryZVertical,-0.2388977728442827,0.7202995111495049,0.2802747925371656,0.5878286301907332,0.980739414691925,-0.1229016929864883,0.1518070697784424,36576.79967025,unknown,2,2020-03-19 17:58:57.905 +0100,606329961.6972452,0,-9.68,101.9316
2020-03-19 17:59:23.255 +0100,36602.152659375,1.05718994140625,0.3650054931640625,0.1345977783203125,36602.147636375,0.6462897294516077,1.761001029029363,0.1517300212778859,4.316880226135254,1.105575561523438,2.051861047744751,0.1175670623779297,0.5513721704483032,-0.06932592391967773,XArbitraryZVertical,-0.1983813251947369,0.7443713896239698,0.2570387653648779,0.5835128450335489,0.9706839323043823,-0.1511484980583191,0.1868878304958344,36576.79967025,unknown,2,2020-03-19 17:58:57.905 +0100,606329961.6972452,0,-9.68,101.9316
2020-03-19 17:59:23.275 +0100,36602.172752375,0.9985198974609375,0.2782745361328125,0.1383514404296875,36602.167729375,0.5612684063007738,1.797313114870605,0.1716920658726104,3.401110410690308,1.168439149856567,1.627222061157227,0.06104594469070435,0.4918805360794067,-0.0756145715713501,XArbitraryZVertical,-0.1646257427510227,0.7638976854714256,0.2362871746557519,0.577518035899653,0.9601272940635681,-0.1708497852087021,0.2212826162576675,36576.79967025,unknown,2,2020-03-19 17:58:57.905 +0100,606329961.6972452,0,-9.68,101.9316
2020-03-19 17:59:23.295 +0100,36602.192846375,1.050933837890625,0.2360382080078125,0.0993499755859375,36602.187822375,0.4965682916811855,1.833125052284668,0.1861964682936375,2.424934864044189,1.235661268234253,1.316948056221008,0.06103044748306274,0.4395029246807098,-0.1318545341491699,XArbitraryZVertical,-0.1393161807195928,0.779753138022156,0.2204045375734644,0.5692081320071142,0.9490954875946045,-0.1851224601268768,0.254847913980484,36576.79967025,unknown,2,2020-03-19 17:58:57.905 +0100,606329961.6972452,0,-9.68,101.9316
2020-03-19 17:59:23.316 +0100,36602.212939375,1.162384033203125,0.224395751953125,0.0696258544921875,36602.207916375,0.449972155237806,1.866498215250638,0.1975941056517035,1.694008827209473,1.188744425773621,1.007129430770874,0.164350688457489,0.4216233491897583,-0.206326961517334,XArbitraryZVertical,-0.1211625200658216,0.7925844742480235,0.2094056532726296,0.5597131756821314,0.9379841685295105,-0.196310818195343,0.285741001367569,36576.79967025,unknown,2,2020-03-19 17:58:57.905 +0100,606329961.6972452,0,-9.68,101.9316
2020-03-19 17:59:23.336 +0100,36602.233032375,1.2674560546875,0.2491912841796875,0.08135986328125,36602.228009375,0.4152390177689734,1.896092216360234,0.2050434327989481,1.367492198944092,1.068084478378296,0.7620419859886169,0.2883515357971191,0.4389930963516235,-0.2452759742736816,XArbitraryZVertical,-0.1081451550108504,0.8029644227729679,0.2009440596350276,0.5506126401380945,0.9277069568634033,-0.2036096900701523,0.3128944635391235,36576.79967025,unknown,2,2020-03-19 17:58:57.905 +0100,606329961.6972452,0,-9.68,101.9316
2020-03-19 17:59:23.356 +0100,36602.25312537501,1.392959594726562,0.308013916015625,0.065032958984375,36602.248102375,0.3836741049158511,1.923115955161062,0.2096044991339484,1.436144113540649,0.9600856900215149,0.7093952298164368,0.4095829129219055,0.4806117415428162,-0.2507860660552979,XArbitraryZVertical,-0.09673695883213659,0.8120366983030378,0.1927223529453322,0.542306560687256,0.9180324077606201,-0.2080730646848679,0.3375232815742493,36576.79967025,unknown,2,2020-03-19 17:58:57.905 +0100,606329961.6972452,0,-9.68,101.9316
2020-03-19 17:59:23.376 +0100,36602.273218375,1.425048828125,0.4037322998046875,-0.0244598388671875,36602.268195375,0.3478674602174308,1.946374879204676,0.2109007611037298,1.826858282089233,0.5527878999710083,0.6357376575469971,0.5284978151321411,0.5607520341873169,-0.3313940763473511,XArbitraryZVertical,-0.08393952176637617,0.8199364748337941,0.1825329607220195,0.5360411606653652,0.9096828699111938,-0.2093407809734344,0.358683317899704,36576.79967025,unknown,2,2020-03-19 17:58:57.905 +0100,606329961.6972452,0,-9.68,101.9316
2020-03-19 17:59:23.396 +0100,36602.293312375,1.18310546875,0.4753265380859375,-0.07440185546875,36602.288288375,0.3022648556462824,1.960943753694287,0.2051521077898263,2.532743215560913,-0.04028589278459549,0.5059952139854431,0.4217904210090637,0.6533939838409424,-0.4358351230621338,XArbitraryZVertical,-0.06807273771110128,0.8255548199985538,0.1674616252352831,0.5345856935615053,0.9054587483406067,-0.2037160843610764,0.3723493218421936,36576.79967025,unknown,2,2020-03-19 17:58:57.905 +0100,606329961.6972452,0,-9.68,101.9316
2020-03-19 17:59:23.416 +0100,36602.313405375,0.9150848388671875,0.4299163818359375,-0.035003662109375,36602.30838137501,0.2446201595566732,1.967897008076891,0.1911541287885291,3.162177801132202,-0.3451390862464905,0.3697354197502136,0.1338047981262207,0.6499390602111816,-0.4384877681732178,XArbitraryZVertical,-0.04867957059821354,0.8291448986730469,0.1461221114508767,0.5373987243607823,0.905389130115509,-0.1899921298027039,0.3797019124031067,36576.79967025,unknown,2,2020-03-19 17:58:57.905 +0100,606329961.6972452,0,-9.68,101.9316
2020-03-19 17:59:23.436 +0100,36602.333498375,0.7838897705078125,0.3735809326171875,0.01806640625,36602.328475375,0.1786004027610715,1.971877642670993,0.170468349200724,3.563801050186157,-0.4217206537723541,0.2450973391532898,-0.07946598529815674,0.5736673474311829,-0.3935383558273315,XArbitraryZVertical,-0.02727692724330116,0.8316450733136586,0.1197552931865508,0.5415542331315678,0.9072949290275574,-0.1696439236402512,0.3847551047801971,36576.79967025,unknown,2,2020-03-19 17:58:57.905 +0100,606329961.6972452,0,-9.68,101.9316
2020-03-19 17:59:23.458 +0100,36602.353591375,0.8061676025390625,0.288116455078125,0.060028076171875,36602.348568375,0.1082440370720068,1.974023231879419,0.1447769036802747,3.766424655914307,-0.4652194678783417,0.1150542572140694,-0.1281543374061584,0.4763801991939545,-0.3487111330032349,XArbitraryZVertical,-0.0052119436349598,0.8331353424508943,0.08999720381295082,0.5456727705115051,0.9101766347885132,-0.1442716717720032,0.3882833123207092,36576.79967025,unknown,2,2020-03-19 17:58:57.905 +0100,606329961.6972452,0,-9.68,101.9316
2020-03-19 17:59:23.476 +0100,36602.373684375,0.9416656494140625,0.2100982666015625,0.118927001953125,36602.368661375,0.03689734537298359,1.973421356715786,0.1163976258410303,3.800616025924683,-0.5246341228485107,0.07256608456373215,-0.05357122421264648,0.3614971041679382,-0.3047198057174683,XArbitraryZVertical,0.0167061349184091,0.8332542268820148,0.05867023810552519,0.5495143668587414,0.9138100147247314,-0.1161349713802338,0.3891834020614624,36576.79967025,unknown,2,2020-03-19 17:58:57.905 +0100,606329961.6972452,0,-9.68,101.9316
2020-03-19 17:59:23.514 +0100,36602.393778375,1.159774780273438,0.1841888427734375,0.201019287109375,36602.388754375,-0.03411677424997305,1.969195033180776,0.08893145663377643,3.733611822128296,-0.6439528465270996,0.1805644631385803,0.1262186765670776,0.2784664034843445,-0.2311912775039673,XArbitraryZVertical,0.0387824351953969,0.8316855592727124,0.02759767087402346,0.5532028934807006,0.9180411100387573,-0.08881428092718124,0.3864098787307739,36576.79967025,unknown,2,2020-03-19 17:58:57.905 +0100,606329961.6972452,0,-9.68,101.9316
2020-03-19 17:59:23.516 +0100,36602.413871375,1.379058837890625,0.1858367919921875,0.32208251953125,36602.408847375,-0.1048750099678643,1.959122157102658,0.06532211211653417,3.648656129837036,-0.9236798286437988,0.3573314845561981,0.3529586791992188,0.2563924789428711,-0.1159237623214722,XArbitraryZVertical,0.06166982100517154,0.8277153987180838,-0.00212416498699651,0.5577450556107139,0.9235703349113464,-0.06527566909790039,0.377831906080246,36576.79967025,unknown,2,2020-03-19 17:58:57.905 +0100,606329961.6972452,0,-9.68,101.9316
2020-03-19 17:59:23.537 +0100,36602.433964375,1.476348876953125,0.189178466796875,0.3921966552734375,36602.428941375,-0.1758839979634635,1.939816944088176,0.04712504926769778,3.577070713043213,-1.443906903266907,0.5412418842315674,0.5230905413627625,0.2354166805744171,0.001047849655151367,XArbitraryZVertical,0.08569293347576926,0.8202484785605605,-0.03028408873005642,0.5647406406300922,0.9316455721855164,-0.04710760712623596,0.3603017032146454,36576.79967025,unknown,2,2020-03-19 17:58:57.905 +0100,606329961.6972452,0,-9.68,101.9316
2020-03-19 17:59:23.557 +0100,36602.45405737501,1.319000244140625,0.1697998046875,0.46771240234375,36602.449034375,-0.2455751157143446,1.906683102482809,0.03296789702393201,3.383127212524414,-2.103039503097534,0.5221644639968872,0.4814829230308533,0.213580459356308,0.09431576728820801,XArbitraryZVertical,0.1093217455916475,0.8079371853580036,-0.05756270425800317,0.5761709308124019,0.9436055421829224,-0.03296192362904549,0.3294274806976318,36576.79967025,unknown,2,2020-03-19 17:58:57.905 +0100,606329961.6972452,0,-9.68,101.9316
2020-03-19 17:59:23.577 +0100,36602.474150375,1.111892700195312,0.116729736328125,0.55499267578125,36602.469127375,-0.3080277222016662,1.863122056395251,0.02244376151194292,2.765199899673462,-2.332682371139526,0.4215816855430603,0.2351482510566711,0.1732752025127411,0.2310490608215332,XArbitraryZVertical,0.1297237173003268,0.7919757027658334,-0.08261395302030711,0.590864829944135,0.9573351740837097,-0.02244187705218792,0.2881075143814087,36576.79967025,unknown,2,2020-03-19 17:58:57.905 +0100,606329961.6972452,0,-9.68,101.9316
2020-03-19 17:59:23.597 +0100,36602.494243375,1.0740966796875,0.08221435546875,0.60125732421875,36602.489220375,-0.3544123445560361,1.817315466312115,0.01714530073762673,1.796894788742065,-2.305283784866333,0.2849494218826294,0.1077609062194824,0.1125272959470749,0.3383646011352539,XArbitraryZVertical,0.1442113300120892,0.7753709151312558,-0.1017188317641758,0.6063466305601624,0.9696251153945923,-0.01714446023106575,0.2439939230680466,36576.79967025,unknown,2,2020-03-19 17:58:57.905 +0100,606329961.6972452,0,-9.68,101.9316
2020-03-19 17:59:23.617 +0100,36602.514337375,1.128097534179688,0.09344482421875,0.633392333984375,36602.50931337501,-0.3805392610046617,1.7719853602064,0.0145270567320291,0.8069183826446533,-2.24988055229187,0.02660761401057243,0.116962194442749,0.09634430706501007,0.4211046695709229,XArbitraryZVertical,0.1509919679221914,0.7596763479741814,-0.1140971862927648,0.6221536680496039,0.9797263741493225,-0.01452654600143433,0.1998134553432465,36576.79967025,unknown,2,2020-03-19 17:58:57.905 +0100,606329961.6972452,0,-9.68,101.9316
2020-03-19 17:59:23.637 +0100,36602.534430375,1.16204833984375,0.1174774169921875,0.6233367919921875,36602.529407375,-0.3873178025581508,1.726864981714053,0.01024194319738411,-0.02852746099233627,-2.253485441207886,-0.3210499584674835,0.1677472591400146,0.1075776815414429,0.4771633148193359,XArbitraryZVertical,0.1495410823109045,0.745218970565942,-0.1212394773596828,0.6384255022387306,0.9877941608428955,-0.01024176459759474,0.1554276943206787,36576.79967025,unknown,2,2020-03-19 17:58:57.905 +0100,606329961.6972452,0,-9.68,101.9316
2020-03-19 17:59:23.657 +0100,36602.554523375,1.145477294921875,0.1824188232421875,0.61505126953125,36602.549500375,-0.379561640636004,1.681932463818382,0.001683073430039551,-0.588207483291626,-2.190171241760254,-0.5771453380584717,0.1554713249206543,0.151570200920105,0.5023055076599121,XArbitraryZVertical,0.1411447737173034,0.7318003947131335,-0.1251608676543742,0.6548900553339352,0.9938291907310486,-0.001683072652667761,0.1109073311090469,36576.79967025,unknown,2,2020-03-19 17:58:57.905 +0100,606329961.6972452,0,-9.68,101.9316
2020-03-19 17:59:23.677 +0100,36602.574616375,1.119110107421875,0.269866943359375,0.59759521484375,36602.569593375,-0.3645819394902274,1.639387016818906,-0.01111229753442165,-0.6888530850410461,-2.042731046676636,-0.8397704362869263,0.1414905190467834,0.2201958894729614,0.5421323776245117,XArbitraryZVertical,0.1287754816265156,0.7195020616718483,-0.1277077369425898,0.6703911685033946,0.9975869059562683,0.01111206877976656,0.06853268295526505,36576.79967025,unknown,2,2020-03-19 17:58:57.905 +0100,606329961.6972452,0,-9.68,101.9316
2020-03-19 17:59:23.697 +0100,36602.594709375,1.083938598632812,0.2948760986328125,0.5942535400390625,36602.589686375,-0.3528524189074121,1.60045290532623,-0.02957071011115038,-0.3361347913742065,-1.840259671211243,-1.033582091331482,0.0998694896697998,0.2577564716339111,0.5598013401031494,XArbitraryZVertical,0.1157803886476572,0.7081063018648757,-0.1326824204204888,0.6837950589623228,0.999123215675354,0.02956640161573887,0.02963926643133163,36576.79967025,unknown,2,2020-03-19 17:58:57.905 +0100,606329961.6972452,0,-9.68,101.9316
2020-03-19 17:59:23.717 +0100,36602.614803375,1.108901977539062,0.260711669921875,0.5914764404296875,36602.609779375,-0.3508689230042082,1.566320215906762,-0.05141987192707907,0.1813544183969498,-1.569165110588074,-1.140182375907898,0.08518755435943604,0.2324617505073547,0.5917439460754395,XArbitraryZVertical,0.1051596741858414,0.6976434283422056,-0.1415091277332561,0.6944135729148438,0.9986682534217834,0.05139721557497978,-0.004470179788768291,36576.79967025,unknown,2,2020-03-19 17:58:57.905 +0100,606329961.6972452,0,-9.68,101.9316
2020-03-19 17:59:23.738 +0100,36602.634896375,1.182220458984375,0.194671630859375,0.6296539306640625,36602.629873375,-0.3598096794120984,1.536978119378374,-0.074960305747445,0.6387752890586853,-1.295498251914978,-1.221343994140625,0.1438292264938354,0.1565089821815491,0.6478312611579895,XArbitraryZVertical,0.09777634506150665,0.6881724926756375,-0.1541818703776108,0.7022011279466123,0.9966216683387756,0.07489012181758881,-0.03371681272983551,36576.79967025,unknown,2,2020-03-19 17:58:57.905 +0100,606329961.6972452,0,-9.68,101.9316
2020-03-19 17:59:23.758 +0100,36602.65498937501,1.173309326171875,-0.0550689697265625,0.6550750732421875,36602.649966375,-0.3759017814743013,1.510847569701244,-0.09970023559772793,0.783186674118042,-1.210385799407959,-1.31157922744751,0.2186458110809326,0.0124027207493782,0.7033164501190186,XArbitraryZVertical,0.09230606873601484,0.6794644394293271,-0.1694128824317513,0.7078890631988409,0.9932465553283691,0.09953514486551285,-0.05961532890796661,36576.79967025,unknown,2,2020-03-19 17:58:57.905 +0100,606329961.6972452,0,-9.68,101.9316
2020-03-19 17:59:23.778 +0100,36602.675082375,0.925323486328125,-0.2418212890625,0.6003875732421875,36602.670059375,-0.3926188547789877,1.484061261785207,-0.1260918268166814,0.5943400859832764,-1.25885283946991,-1.407017588615417,0.05530214309692383,-0.2774921357631683,0.710505485534668,XArbitraryZVertical,0.08600261693478056,0.6705477171095355,-0.1852455694029884,0.7131993468852592,0.9883316159248352,0.1257579624652863,-0.08593861758708954,36576.79967025,unknown,2,2020-03-19 17:58:57.905 +0100,606329961.6972452,0,-9.68,101.9316
2020-03-19 17:59:23.798 +0100,36602.695175375,0.84991455078125,-0.37152099609375,0.597900390625,36602.69015237501,-0.4023486477110313,1.459037904126425,-0.1525901753781146,0.0565810427069664,-1.059412002563477,-1.25695013999939,-0.124143123626709,-0.4817420840263367,0.7001900672912598,XArbitraryZVertical,0.07711839061774031,0.6625237482139342,-0.1983092198700851,0.7181841814913046,0.9822147488594055,0.1519987136125565,-0.1102300733327866,36576.79967025,unknown,2,2020-03-19 17:58:57.905 +0100,606329961.6972452,0,-9.68,101.9316
2020-03-19 17:59:23.818 +0100,36602.715269375,0.9144439697265625,-0.419708251953125,0.645111083984375,36602.710245375,-0.3989174904687366,1.441058186595018,-0.1753804876616667,-0.6866275072097778,-0.8279403448104858,-0.9590966701507568,-0.1015744209289551,-0.5711818933486938,0.7416725158691406,XArbitraryZVertical,0.06571997328425182,0.6572563655698638,-0.2049574322565487,0.7222793012444695,0.9763849377632141,0.1744828075170517,-0.1273899078369141,36576.79967025,unknown,2,2020-03-19 17:58:57.905 +0100,606329961.6972452,0,-9.68,101.9316
2020-03-19 17:59:23.838 +0100,36602.735362375,0.929779052734375,-0.3490447998046875,0.6885833740234375,36602.730339375,-0.3786694098606645,1.429638945071231,-0.1942232914743906,-1.513489603996277,-0.6943369507789612,-0.6253031492233276,-0.04612147808074951,-0.5921145677566528,0.8135296106338501,XArbitraryZVertical,0.05086783993059392,0.6545155067637592,-0.2038844045102821,0.7262596591152144,0.9714387655258179,0.1930044889450073,-0.1380438357591629,36576.79967025,unknown,2,2020-03-19 17:58:57.905 +0100,606329961.6972452,0,-9.68,101.9316
2020-03-19 17:59:23.859 +0100,36602.755455375,0.95745849609375,-0.227325439453125,0.64410400390625,36602.750432375,-0.3430924246382309,1.424985577201891,-0.2076732347994847,-2.054955959320068,-0.467585027217865,-0.176289439201355,-0.02976661920547485,-0.4870841205120087,0.8181463479995728,XArbitraryZVertical,0.03370893313060408,0.6540469062640664,-0.1952472505250864,0.7300443300283624,0.9681296348571777,0.2061836868524551,-0.142172709107399,36576.79967025,unknown,2,2020-03-19 17:58:57.905 +0100,606329961.6972452,0,-9.68,101.9316
2020-03-19 17:59:23.878 +0100,36602.775548375,0.9599151611328125,-0.1774444580078125,0.5131072998046875,36602.770525375,-0.2982614065447232,1.426784198022551,-0.2126288983786791,-2.292434930801392,-0.3136028349399567,0.3020275831222534,0.009286820888519287,-0.406817227602005,0.7246428728103638,XArbitraryZVertical,0.01733385411732557,0.6554068407983901,-0.1803835137368585,0.7332142390859023,0.9673607349395752,0.2110303193330765,-0.1402828246355057,36576.79967025,unknown,2,2020-03-19 17:58:57.905 +0100,606329961.6972452,0,-9.68,101.9316
2020-03-19 17:59:23.899 +0100,36602.795641375,0.82598876953125,-0.139312744140625,0.372314453125,36602.790618375,-0.250948600987039,1.431636554032617,-0.209554456351192,-2.15902042388916,-0.161106064915657,0.6383310556411743,-0.07026761770248413,-0.3778405487537384,0.5761004090309143,XArbitraryZVertical,0.003379004782984602,0.6573813915081269,-0.1620045439941004,0.7359299164773812,0.9686681032180786,0.2080241292715073,-0.1356765776872635,36576.79967025,unknown,2,2020-03-19 17:58:57.905 +0100,606329961.6972452,0,-9.68,101.9316
2020-03-19 17:59:23.918 +0100,36602.815735375,0.7588348388671875,-0.0469207763671875,0.23089599609375,36602.810711375,-0.2093982461145383,1.440153584100608,-0.1993493347069483,-1.664756536483765,0.1785314530134201,0.9075131416320801,-0.1959397792816162,-0.2861829102039337,0.4259338974952698,XArbitraryZVertical,-0.005822378049091578,0.660394091632041,-0.1434360168138112,0.7370697456955961,0.9718427062034607,0.1980315893888474,-0.1276914924383163,36576.79967025,unknown,2,2020-03-19 17:58:57.905 +0100,606329961.6972452,0,-9.68,101.9316
2020-03-19 17:59:23.947 +0100,36602.83582837501,0.7973175048828125,0.045013427734375,0.1544647216796875,36602.830805375,-0.1800238523827289,1.453000291266838,-0.1824661855996165,-0.9539132714271545,0.5491414070129395,1.090600728988647,-0.206418514251709,-0.1812123656272888,0.3038910627365112,XArbitraryZVertical,-0.008364745948409379,0.6649388119735848,-0.127187222203584,0.7359414675631226,0.9765843152999878,0.1814553737640381,-0.1155728176236153,36576.79967025,unknown,2,2020-03-19 17:58:57.905 +0100,606329961.6972452,0,-9.68,101.9316
2020-03-19 17:59:23.959 +0100,36602.855921375,0.881378173828125,0.07342529296875,0.086456298828125,36602.850898375,-0.1662663445220328,1.470056084537557,-0.1609231382390199,-0.1391536891460419,0.8968809843063354,1.184044718742371,-0.1455492973327637,-0.08659161627292633,0.2185729146003723,XArbitraryZVertical,-0.003911638464139902,0.671080791864171,-0.1151127077574448,0.7323825754867271,0.9820752143859863,0.1602294892072678,-0.0992705374956131,36576.79967025,unknown,2,2020-03-19 17:58:57.905 +0100,606329961.6972452,0,-9.68,101.9316
2020-03-19 17:59:23.978 +0100,36602.876014375,0.954376220703125,0.0777435302734375,0.021514892578125,36602.870991375,-0.1702458742421592,1.490357115830387,-0.1353675627568509,0.7767579555511475,1.162421107292175,1.324227809906006,-0.06359750032424927,-0.06142328679561615,0.1291717290878296,XArbitraryZVertical,0.007993057974560389,0.6783269188198944,-0.1080394289983949,0.7267297241921076,0.9876477718353271,0.1349545270204544,-0.07961740344762802,36576.79967025,unknown,2,2020-03-19 17:58:57.905 +0100,606329961.6972452,0,-9.68,101.9316
2020-03-19 17:59:24.006 +0100,36602.896107375,0.994873046875,0.102752685546875,-0.042938232421875,36602.89108437501,-0.1938031995697003,1.513358318268881,-0.1059203282199509,1.73699939250946,1.401877045631409,1.430507779121399,-0.02340209484100342,-0.0189615786075592,0.04107195138931274,XArbitraryZVertical,0.02801697146967869,0.6860558979093295,-0.1064204577460193,0.7191780444521785,0.9927558302879333,0.1057223826646805,-0.05708470940589905,36576.79967025,unknown,2,2020-03-19 17:58:57.905 +0100,606329961.6972452,0,-9.68,101.9316
2020-03-19 17:59:24.019 +0100,36602.916201375,1.05316162109375,0.147857666015625,-0.11279296875,36602.911177375,-0.236215690175901,1.539802403316737,-0.07422763428033788,2.594354391098022,1.566615462303162,1.537567734718323,0.03064590692520142,0.04525534808635712,-0.04574775695800781,XArbitraryZVertical,0.05550793282823275,0.6938782708933663,-0.1101914741440968,0.7094431781106509,0.9967674016952515,0.07415948808193207,-0.03090362995862961,36576.79967025,unknown,2,2020-03-19 17:58:57.905 +0100,606329961.6972452,0,-9.68,101.9316
2020-03-19 17:59:24.039 +0100,36602.936294375,1.054763793945312,0.142730712890625,-0.1497955322265625,36602.931271375,-0.2950969989282555,1.568425495165205,-0.04220457958618064,3.258526563644409,1.596670150756836,1.55064332485199,0.06047224998474121,0.1173230931162834,-0.1325101852416992,XArbitraryZVertical,0.08903213296038254,0.7006346551969124,-0.1187952165442932,0.697905551908574,0.9991068243980408,0.04219205304980278,-0.002368718385696411,36576.79967025,unknown,2,2020-03-19 17:58:57.905 +0100,606329961.6972452,0,-9.68,101.9316
2020-03-19 17:59:24.059 +0100,36602.956387375,1.00848388671875,0.0707244873046875,-0.1346282958984375,36602.951364375,-0.3636492981880563,1.598146993498293,-0.01327698984058732,3.436728954315186,1.533217787742615,1.394531965255737,0.02749395370483398,0.09858553111553192,-0.1714253425598145,XArbitraryZVertical,0.1250427399896974,0.7057171785655625,-0.1307783638306105,0.684999689404436,0.9995378851890564,0.0132765993475914,0.02734484523534775,36576.79967025,unknown,2,2020-03-19 17:58:57.905 +0100,606329961.6972452,0,-9.68,101.9316
2020-03-19 17:59:24.079 +0100,36602.976480375,0.95318603515625,0.004119873046875,-0.11529541015625,36602.971457375,-0.4314371923475894,1.627909462573834,0.01015706246694007,3.15352463722229,1.450701236724854,1.199951171875,-0.0128968358039856,0.0431312620639801,-0.1815674304962158,XArbitraryZVertical,0.1590199324540348,0.7094027302112015,-0.1433640342336613,0.6714962053096583,0.9983179569244385,-0.01015688758343458,0.05707914382219315,36576.79967025,unknown,2,2020-03-19 17:58:57.905 +0100,606329961.6972452,0,-9.68,101.9316
2020-03-19 17:59:24.100 +0100,36602.996573375,0.9296722412109375,-0.0373382568359375,-0.127960205078125,36602.991550375,-0.4912158106830424,1.657884653832455,0.02794979501275757,2.627927780151367,1.41599452495575,0.999499499797821,-0.06090658903121948,0.01105490326881409,-0.2017891407012939,XArbitraryZVertical,0.1883924803359109,0.712727458740925,-0.1542739760163968,0.657820188585625,0.9958211183547974,-0.02794615551829338,0.08694431185722351,36576.79967025,unknown,2,2020-03-19 17:58:57.905 +0100,606329961.6972452,0,-9.68,101.9316
2020-03-19 17:59:24.119 +0100,36603.016667375,0.9486236572265625,-0.04107666015625,-0.158355712890625,36603.011643375,-0.5399294729957586,1.687438612914584,0.04193017444155792,2.061915636062622,1.357979774475098,0.8830204010009766,-0.06025570631027222,-0.00243908166885376,-0.2629662752151489,XArbitraryZVertical,0.2126408931833823,0.7161855101193192,-0.1621367958294772,0.6446500777944247,0.9923319220542908,-0.04191789031028748,0.1162756681442261,36576.79967025,unknown,2,2020-03-19 17:58:57.905 +0100,606329961.6972452,0,-9.68,101.9316
2020-03-19 17:59:24.139 +0100,36603.03676037501,1.023025512695312,-0.0631256103515625,-0.1707763671875,36603.031737375,-0.5780808061714147,1.715563827154653,0.05396954956574018,1.542040348052979,1.248141050338745,0.7950860261917114,-0.003837227821350098,0.003376111388206482,-0.3153094053268433,XArbitraryZVertical,0.2324352297273888,0.7197221855500631,-0.1668146801900586,0.6325715050040326,0.988098680973053,-0.05394335463643074,0.1440523266792297,36576.79967025,unknown,2,2020-03-19 17:58:57.905 +0100,606329961.6972452,0,-9.68,101.9316
2020-03-19 17:59:24.161 +0100,36603.056853375,1.090744018554688,-0.0279998779296875,-0.1566162109375,36603.051830375,-0.6064720543439222,1.74044275961887,0.06490915245348064,1.110564470291138,1.04758358001709,0.7191924452781677,0.07799386978149414,0.01460161805152893,-0.3339064121246338,XArbitraryZVertical,0.2481227811769082,0.7229621407348864,-0.168725383735267,0.6223284106491703,0.9835689663887024,-0.06486358493566513,0.1684783399105072,36576.79967025,unknown,2,2020-03-19 17:58:57.905 +0100,606329961.6972452,0,-9.68,101.9316
2020-03-19 17:59:24.180 +0100,36603.076946375,1.104293823242188,-0.0087127685546875,-0.137054443359375,36603.071923375,-0.628265867650856,1.760247120162859,0.07471943285354722,0.8730901479721069,0.7628763914108276,0.6324328780174255,0.1287193894386292,0.05957475304603577,-0.332760214805603,XArbitraryZVertical,0.2606405110789222,0.7252334662217143,-0.1693258564362252,0.6143547680842305,0.9793676137924194,-0.07464992254972458,0.1877941191196442,36576.79967025,unknown,2,2020-03-19 17:58:57.905 +0100,606329961.6972452,0,-9.68,101.9316
2020-03-19 17:59:24.200 +0100,36603.097038125,1.05810546875,0.050872802734375,-0.141357421875,36603.092015125,-0.647216190741537,1.774610359859743,0.08310530891838797,0.8382141590118408,0.5357794761657715,0.5418829917907715,0.1057214140892029,0.1030602902173996,-0.3355348110198975,XArbitraryZVertical,0.2712189671920517,0.726150085754578,-0.1701005416958078,0.6084506740298296,0.9759219884872437,-0.08300968259572983,0.2017073482275009,36576.79967025,unknown,2,2020-03-19 17:58:57.905 +0100,606329961.6972452,0,-9.68,101.9316
2020-03-19 17:59:24.220 +0100,36603.117132125,1.024642944335938,0.0662689208984375,-0.1871795654296875,36603.112108125,-0.6666611255765358,1.785123763269564,0.08909665955982862,0.9378225803375244,0.3430005013942719,0.4433275759220123,0.06996256113052368,0.1542870700359344,-0.3688982725143433,XArbitraryZVertical,0.280929010199323,0.7259491824830459,-0.172314146811157,0.603642635631733,0.9732438325881958,-0.08897882699966431,0.211846649646759,36576.79967025,unknown,2,2020-03-19 17:58:57.905 +0100,606329961.6972452,0,-9.68,101.9316
2020-03-19 17:59:24.240 +0100,36603.137225125,0.9781494140625,0.07574462890625,-0.2219696044921875,36603.132202125,-0.688109339479326,1.79196554184444,0.09233098607065827,1.065799355506897,0.1484250575304031,0.3210501372814178,0.03152889013290405,0.1629707515239716,-0.4317927360534668,XArbitraryZVertical,0.2902385714718804,0.7245547712961343,-0.176586050968203,0.5996659655667284,0.9714858531951904,-0.09219985455274582,0.2184360921382904,36576.79967025,unknown,2,2020-03-19 17:58:57.905 +0100,606329961.6972452,0,-9.68,101.9316
2020-03-19 17:59:24.260 +0100,36603.157318125,0.9290313720703125,0.11480712890625,-0.2114105224609375,36603.152295125,-0.7115511139674651,1.795873734370079,0.09224167217545474,1.210868120193481,0.03680266439914703,0.1809213608503342,-0.02097803354263306,0.1898135989904404,-0.4443329572677612,XArbitraryZVertical,0.2990435740714898,0.7222807218701768,-0.1830514664205069,0.5961338790710909,0.9706327319145203,-0.09211092442274094,0.22223299741745,36576.79967025,unknown,2,2020-03-19 17:58:57.905 +0100,606329961.6972452,0,-9.68,101.9316
2020-03-19 17:59:24.280 +0100,36603.17741112501,0.9336090087890625,0.0961761474609375,-0.1671295166015625,36603.172388125,-0.7373587444954092,1.798018018545692,0.08906207230524751,1.347141623497009,-0.05918004363775253,0.09506560117006302,-0.04304242134094238,0.196565181016922,-0.4197909832000732,XArbitraryZVertical,0.3076411653183421,0.719406876464058,-0.1915734362743076,0.5925456571789894,0.9704346060752869,-0.08894437551498413,0.2243786752223969,36576.79967025,unknown,2,2020-03-19 17:58:57.905 +0100,606329961.6972452,0,-9.68,101.9316
2020-03-19 17:59:24.300 +0100,36603.197504125,0.9487762451171875,0.1143035888671875,-0.118377685546875,36603.192481125,-0.7647901077311366,1.798483194624249,0.08396846186480754,1.411036252975464,-0.1358528733253479,0.02079286798834801,-0.03074800968170166,0.1903157532215118,-0.366127610206604,XArbitraryZVertical,0.3160888648451637,0.7159277557656728,-0.2014821026177614,0.5890164513702925,0.9707589745521545,-0.0838698223233223,0.2249294370412827,36576.79967025,unknown,2,2020-03-19 17:58:57.905 +0100,606329961.6972452,0,-9.68,101.9316
2020-03-19 17:59:24.320 +0100,36603.217598125,0.965087890625,0.137603759765625,-0.0715789794921875,36603.21257412501,-0.7929998784913898,1.797172987047983,0.07739126369828489,1.467210292816162,-0.2139293253421783,-0.02240293845534325,-0.0161166787147522,0.1954481899738312,-0.3165280818939209,XArbitraryZVertical,0.3241703059233551,0.7119001149268538,-0.2123869012816627,0.5856652261428544,0.9715693593025208,-0.07731403410434723,0.2237763255834579,36576.79967025,unknown,2,2020-03-19 17:58:57.905 +0100,606329961.6972452,0,-9.68,101.9316
2020-03-19 17:59:24.340 +0100,36603.237691125,0.9802398681640625,0.1352081298828125,-0.02801513671875,36603.23266812501,-0.8221144579781088,1.793969321670718,0.07022456086131042,1.508431553840637,-0.3181790113449097,-0.0253187008202076,0.004369497299194336,0.2065351903438568,-0.2719968557357788,XArbitraryZVertical,0.3321377579358627,0.7071592862116657,-0.2240234602060907,0.5826007246467441,0.9727963209152222,-0.07016685605049133,0.2207794934511185,36576.79967025,unknown,2,2020-03-19 17:58:57.905 +0100,606329964.2663656,0,-9.64,101.9336
2020-03-19 17:59:24.360 +0100,36603.257784125,0.98431396484375,0.1596221923828125,0.0103759765625,36603.252761125,-0.8519558376976268,1.789043125593759,0.06305004546562447,1.538704514503479,-0.3576546609401703,-0.01455566845834255,0.00372779369354248,0.208608090877533,-0.2233594655990601,XArbitraryZVertical,0.3400725357273793,0.7017084423616037,-0.236111509568941,0.5798338849047628,0.9743387699127197,-0.06300827860832214,0.216088131070137,36576.79967025,unknown,2,2020-03-19 17:58:57.905 +0100,606329964.2663656,0,-9.64,101.9336
2020-03-19 17:59:24.380 +0100,36603.277877125,1.016143798828125,0.2017822265625,0.03857421875,36603.272854125,-0.8827575056139974,1.78358509968537,0.05618988751658256,1.601550579071045,-0.3677230179309845,0.0006308089941740036,0.02190828323364258,0.2360008358955383,-0.1847841739654541,XArbitraryZVertical,0.3482558762808177,0.6958049245883756,-0.248409432024427,0.5769455215248991,0.9759031534194946,-0.05616032332181931,0.2108532935380936,36576.79967025,unknown,2,2020-03-19 17:58:57.905 +0100,606329964.2663656,0,-9.64,101.9336
2020-03-19 17:59:24.400 +0100,36603.297970125,1.061813354492188,0.230010986328125,0.0740203857421875,36603.292947125,-0.9152090897759538,1.777730974435331,0.04937442962362579,1.694493293762207,-0.3904567062854767,0.01159361004829407,0.06088143587112427,0.2677690386772156,-0.1526368856430054,XArbitraryZVertical,0.3568482198286443,0.6893943768312082,-0.2611865145367828,0.5737388854062055,0.9774726033210754,-0.04935437068343163,0.2052105218172073,36576.79967025,unknown,2,2020-03-19 17:58:57.905 +0100,606329964.2663656,0,-9.64,101.9336
2020-03-19 17:59:24.421 +0100,36603.318064125,1.13494873046875,0.239837646484375,0.1320648193359375,36603.313040125,-0.9496187292186634,1.771856107291303,0.04283273931016921,1.772505521774292,-0.3387021124362946,0.05104824155569077,0.1092783808708191,0.2830543220043182,-0.09859597682952881,XArbitraryZVertical,0.3660450772728639,0.6824758907007026,-0.2743744194001444,0.5700493215440663,0.9789566397666931,-0.04281964153051376,0.1995246857404709,36576.79967025,unknown,2,2020-03-19 17:58:57.905 +0100,606329964.2663656,0,-9.64,101.9336
2020-03-19 17:59:24.441 +0100,36603.338157125,1.324020385742188,0.2241973876953125,0.2102203369140625,36603.333134125,-0.9846732818078969,1.76780714978156,0.03799896157829028,1.720843195915222,-0.2083644568920135,0.174674779176712,0.2371170520782471,0.2717547714710236,-0.02134990692138672,XArbitraryZVertical,0.3760412864044003,0.675567711366774,-0.2867488954724887,0.5656644936853373,0.9799481630325317,-0.03798981755971909,0.1955975592136383,36576.79967025,unknown,2,2020-03-19 17:58:57.905 +0100,606329964.2663656,0,-9.64,101.9336
2020-03-19 17:59:24.461 +0100,36603.35825012501,1.53570556640625,0.243804931640625,0.199615478515625,36603.353227125,-1.018637545551099,1.765503198988688,0.03594962732752936,1.64181923866272,-0.1789394468069077,0.266853392124176,0.4556494951248169,0.263465940952301,0.02825665473937988,XArbitraryZVertical,0.3865566127188746,0.6687682428349804,-0.2974562498303157,0.56110858951702,0.980470597743988,-0.03594188392162323,0.1933539509773254,36576.79967025,unknown,2,2020-03-19 17:58:57.905 +0100,606329964.2663656,0,-9.64,101.9336
2020-03-19 17:59:24.481 +0100,36603.378343125,1.604751586914062,0.3037567138671875,0.14453125,36603.373320125,-1.052278592167346,1.760591869955339,0.03469683647338551,1.691534638404846,-0.4765679538249969,0.2382427752017975,0.6173878908157349,0.3041298687458038,-0.021697998046875,XArbitraryZVertical,0.3966550562800023,0.6610121372842009,-0.3082487394245388,0.5574140355281391,0.9814517498016357,-0.03468987345695496,0.1885445564985275,36576.79967025,unknown,2,2020-03-19 17:58:57.905 +0100,606329964.2663656,0,-9.64,101.9336
2020-03-19 17:59:24.503 +0100,36603.398437125,1.418853759765625,0.339996337890625,0.1322784423828125,36603.393413125,-1.087892199977191,1.748086226851978,0.03248400922002489,1.834846138954163,-0.8515317440032959,0.188182070851326,0.5554786920547485,0.3596117794513702,-0.0440448522567749,XArbitraryZVertical,0.4057648171980948,0.6507608598274816,-0.3214044371535962,0.5554857558498593,0.9838060140609741,-0.03247829526662827,0.1762695610523224,36576.79967025,unknown,2,2020-03-19 17:58:57.905 +0100,606329964.2663656,0,-9.64,101.9336
