loggingTime(txt),locationTimestamp_since1970(s),locationLatitude(WGS84),locationLongitude(WGS84),locationAltitude(m),locationSpeed(m/s),locationCourse(°),locationVerticalAccuracy(m),locationHorizontalAccuracy(m),locationFloor(Z),accelerometerTimestamp_sinceReboot(s),accelerometerAccelerationX(G),accelerometerAccelerationY(G),accelerometerAccelerationZ(G),motionTimestamp_sinceReboot(s),motionYaw(rad),motionRoll(rad),motionPitch(rad),motionRotationRateX(rad/s),motionRotationRateY(rad/s),motionRotationRateZ(rad/s),motionUserAccelerationX(G),motionUserAccelerationY(G),motionUserAccelerationZ(G),motionAttitudeReferenceFrame(txt),motionQuaternionX(R),motionQuaternionY(R),motionQuaternionZ(R),motionQuaternionW(R),motionGravityX(G),motionGravityY(G),motionGravityZ(G),activityTimestamp_sinceReboot(s),activity(txt),activityActivityConfidence(Z),activityActivityStartDate(txt),altimeterTimestamp_sinceReboot(s),altimeterReset(bool),altimeterRelativeAltitude(m),altimeterPressure(kPa)
2020-03-09 10:38:38.927 +0100,1583746717.999734,52.56401567029761,13.41053871676452,47.28731,0,24.42975742000491,9.393086986469248,14.70342647683597,-9999,41573.84116141667,-0.576751708984375,0.698486328125,-0.4405975341796875,41573.83613641667,-0.8636027607539795,-0.9269272804392331,-0.7596607694932662,0.05207370221614838,0.03202342242002487,-0.05081111192703247,0.004019021987915039,-0.007496237754821777,-0.009208559989929199,XArbitraryZVertical,-0.4749686479179706,-0.2382797041850347,-0.1971417697759613,0.8238704676493156,-0.579895555973053,0.6886755228042603,-0.4352551400661469,41488.34302604167,unknown,2,2020-03-09 10:36:21.948 +0100,605439517.3889369,0,44261.24,100.3805
2020-03-09 10:38:38.939 +0100,1583746717.999734,52.56401567029761,13.41053871676452,47.28731,0,24.42975742000491,9.393086986469248,14.70342647683597,-9999,41573.85623541667,-0.547698974609375,0.722137451171875,-0.4403228759765625,41573.85121041667,-0.8624769910639704,-0.925994068046223,-0.7590377274177035,0.09687156975269318,-0.01135961711406708,0.05936585366725922,0.003070473670959473,0.01027429103851318,-0.004534125328063965,XArbitraryZVertical,-0.4745290200468947,-0.2383175654458774,-0.1970601009948796,0.824132319022951,-0.5798318982124329,0.688223659992218,-0.4360539019107819,41488.34302604167,unknown,2,2020-03-09 10:36:21.948 +0100,605439517.3889369,0,44261.24,100.3805
2020-03-09 10:38:38.941 +0100,1583746717.999734,52.56401567029761,13.41053871676452,47.28731,0,24.42975742000491,9.393086986469248,14.70342647683597,-9999,41573.87130941667,-0.583343505859375,0.6785736083984375,-0.4214935302734375,41573.86628441667,-0.8604558302004143,-0.9250006068525873,-0.7588435044439813,0.03972825407981873,-0.03096872568130493,0.04196666181087494,0.009778022766113281,0.01516079902648926,0.003782153129577637,XArbitraryZVertical,-0.4741237122693413,-0.2384357601206104,-0.1965127354620318,0.8244620777631668,-0.5795052051544189,0.6880826950073242,-0.4367101788520813,41488.34302604167,unknown,2,2020-03-09 10:36:21.948 +0100,605439517.3889369,0,44261.24,100.3805
2020-03-09 10:38:38.942 +0100,1583746717.999734,52.56401567029761,13.41053871676452,47.28731,0,24.42975742000491,9.393086986469248,14.70342647683597,-9999,41573.88638341667,-0.5633544921875,0.6744537353515625,-0.43011474609375,41573.88135841667,-0.8594554551076333,-0.924841772535547,-0.7592575492084589,0.005154565908014774,-0.05295205488801003,0.06696948409080505,-0.004144966602325439,-0.009797930717468262,0.01514667272567749,XArbitraryZVertical,-0.4741310193191181,-0.2385045869593282,-0.1960313802614289,0.82455253412379,-0.5792082548141479,0.6883831024169922,-0.4366306662559509,41488.34302604167,unknown,2,2020-03-09 10:36:21.948 +0100,605439517.3889369,0,44261.24,100.3805
2020-03-09 10:38:38.953 +0100,1583746717.999734,52.56401567029761,13.41053871676452,47.28731,0,24.42975742000491,9.393086986469248,14.70342647683597,-9999,41573.90145741667,-0.6125335693359375,0.6800994873046875,-0.4185333251953125,41573.89643241667,-0.8591936498336795,-0.925077209068628,-0.7595907687684753,-0.02043822035193443,-0.01637264899909496,-0.005061966832727194,-0.02731186151504517,-0.008269667625427246,0.01555877923965454,XArbitraryZVertical,-0.4742372803714683,-0.2385809837168911,-0.1957818354979078,0.8245286063339456,-0.5791277885437012,0.6886247396469116,-0.436356246471405,41488.34302604167,unknown,2,2020-03-09 10:36:21.948 +0100,605439517.3889369,0,44261.24,100.3805
2020-03-09 10:38:38.968 +0100,1583746717.999734,52.56401567029761,13.41053871676452,47.28731,0,24.42975742000491,9.393086986469248,14.70342647683597,-9999,41573.91653141667,-0.58575439453125,0.683563232421875,-0.431884765625,41573.91150641667,-0.8595579879433154,-0.9255591367383729,-0.7598766098782102,-0.01689882390201092,-0.01079026330262423,0.01055371109396219,-0.03336238861083984,-0.008721113204956055,0.01743471622467041,XArbitraryZVertical,-0.4744260286719801,-0.2386222666787284,-0.1957441281991667,0.824417053562846,-0.5791807770729065,0.6888319849967957,-0.4359587132930756,41488.34302604167,unknown,2,2020-03-09 10:36:21.948 +0100,605439517.3889369,0,44261.24,100.3805
2020-03-09 10:38:38.983 +0100,1583746717.999734,52.56401567029761,13.41053871676452,47.28731,0,24.42975742000491,9.393086986469248,14.70342647683597,-9999,41573.93160541667,-0.5901641845703125,0.695709228515625,-0.4388427734375,41573.92658041667,-0.8598241776606589,-0.9258686214167996,-0.7601385711631891,-0.02949156239628792,-0.009790497832000256,0.004112424328923225,-0.01416093111038208,0.0009462237358093262,0.003093600273132324,XArbitraryZVertical,-0.4745779906282762,-0.2386215948042154,-0.1957129263571086,0.8243371548388492,-0.579171359539032,0.68902188539505,-0.4356709420681,41488.34302604167,unknown,2,2020-03-09 10:36:21.948 +0100,605439517.3889369,0,44261.24,100.3805
2020-03-09 10:38:38.998 +0100,1583746717.999734,52.56401567029761,13.41053871676452,47.28731,0,24.42975742000491,9.393086986469248,14.70342647683597,-9999,41573.94667841667,-0.5814666748046875,0.6920318603515625,-0.4438018798828125,41573.94165441667,-0.8601258624076819,-0.9262414986409874,-0.7605098710144965,-0.0192469134926796,-0.01317031588405371,0.009091203100979328,-0.01104444265365601,0.006429731845855713,-0.003532171249389648,XArbitraryZVertical,-0.4747778232815694,-0.2386114146725938,-0.1956530901529578,0.8242392665490215,-0.5791292786598206,0.6892909407615662,-0.4353012144565582,41488.34302604167,unknown,2,2020-03-09 10:36:21.948 +0100,605439517.3889369,0,44261.24,100.3805
2020-03-09 10:38:39.013 +0100,1583746717.999734,52.56401567029761,13.41053871676452,47.28731,0,24.42975742000491,9.393086986469248,14.70342647683597,-9999,41573.96175241667,-0.5794677734375,0.6953582763671875,-0.4455413818359375,41573.95672841667,-0.8604545513124522,-0.926705230378024,-0.7608621827501187,-0.02852835319936275,-0.01550201699137688,0.0009614713490009308,0.0002088546752929688,0.002970218658447266,-0.009256720542907715,XArbitraryZVertical,-0.4749832128362341,-0.2386368905373936,-0.1955876031445001,0.8241290889940516,-0.579136848449707,0.6895461082458496,-0.4348867535591125,41488.34302604167,unknown,2,2020-03-09 10:36:21.948 +0100,605439517.3889369,0,44261.24,100.3805
2020-03-09 10:38:39.028 +0100,1583746717.999734,52.56401567029761,13.41053871676452,47.28731,0,24.42975742000491,9.393086986469248,14.70342647683597,-9999,41573.97682641667,-0.56134033203125,0.69561767578125,-0.431488037109375,41573.97180241667,-0.8608653613496289,-0.927276331566021,-0.761136573698062,-0.01155794970691204,-0.01669364795088768,0.007927801460027695,-0.0002435445785522461,0.005624949932098389,-0.01108962297439575,XArbitraryZVertical,-0.4751821321280585,-0.2387063830277187,-0.1955504403641117,0.8240031065927271,-0.5792337656021118,0.6897448301315308,-0.434442400932312,41488.34302604167,unknown,2,2020-03-09 10:36:21.948 +0100,605439517.3889369,0,44261.24,100.3805
2020-03-09 10:38:39.043 +0100,1583746717.999734,52.56401567029761,13.41053871676452,47.28731,0,24.42975742000491,9.393086986469248,14.70342647683597,-9999,41573.99190041667,-0.565704345703125,0.6896209716796875,-0.421417236328125,41573.98687641667,-0.860972273532057,-0.9276309586705895,-0.7611911336003699,-0.005276978481560946,-0.01255262643098831,0.005499296821653843,0.01491028070449829,0.006989240646362305,0.005497634410858154,XArbitraryZVertical,-0.4752482482003567,-0.2388135151267963,-0.1954961535266401,0.8239468350630803,-0.5793576836585999,0.6897843480110168,-0.4342144131660461,41488.34302604167,unknown,2,2020-03-09 10:36:21.948 +0100,605439517.3889369,0,44261.24,100.3805
2020-03-09 10:38:39.058 +0100,1583746717.999734,52.56401567029761,13.41053871676452,47.28731,0,24.42975742000491,9.393086986469248,14.70342647683597,-9999,41574.00697441667,-0.5770111083984375,0.6819305419921875,-0.4207000732421875,41574.00195041667,-0.8608365692252117,-0.9275864256192171,-0.7612404738487393,0.002835276536643505,-7.651560008525848e-05,0.0004387591034173965,0.01359724998474121,-0.0001876354217529297,0.01281195878982544,XArbitraryZVertical,-0.4752445965829287,-0.2388151415103136,-0.1954380968895551,0.8239622439789351,-0.5793111324310303,0.6898200511932373,-0.4342198073863983,41488.34302604167,unknown,2,2020-03-09 10:36:21.948 +0100,605439517.3889369,0,44261.24,100.3805
2020-03-09 10:38:39.073 +0100,1583746717.999734,52.56401567029761,13.41053871676452,47.28731,0,24.42975742000491,9.393086986469248,14.70342647683597,-9999,41574.02204841667,-0.5905303955078125,0.6953582763671875,-0.414459228515625,41574.01702341667,-0.8610777667358636,-0.9277650073162411,-0.7613839639675856,-0.02893979288637638,0.0008793976157903671,0.008837671019136906,-0.004943907260894775,-0.00406038761138916,0.01744043827056885,XArbitraryZVertical,-0.4753400063895118,-0.238795695745688,-0.195457994772245,0.82390812588815,-0.5793094635009766,0.6899239420890808,-0.4340569972991943,41488.34302604167,unknown,2,2020-03-09 10:36:21.948 +0100,605439517.3889369,0,44261.24,100.3805
2020-03-09 10:38:39.089 +0100,1583746717.999734,52.56401567029761,13.41053871676452,47.28731,0,24.42975742000491,9.393086986469248,14.70342647683597,-9999,41574.03712241667,-0.58831787109375,0.6890869140625,-0.4281005859375,41574.03209741667,-0.8613518763867438,-0.9278989309107336,-0.7616738233645235,-0.01365235354751348,0.006673799827694893,0.003816179931163788,-0.01133257150650024,0.005236029624938965,0.01940971612930298,XArbitraryZVertical,-0.4754851172589248,-0.2387135712678893,-0.1954642531311292,0.8238466760861999,-0.5792074799537659,0.6901337504386902,-0.4338594675064087,41488.34302604167,unknown,2,2020-03-09 10:36:21.948 +0100,605439517.3889369,0,44261.24,100.3805
2020-03-09 10:38:39.104 +0100,1583746717.999734,52.56401567029761,13.41053871676452,47.28731,0,24.42975742000491,9.393086986469248,14.70342647683597,-9999,41574.05219641667,-0.5842742919921875,0.68646240234375,-0.4317779541015625,41574.04717141667,-0.8614796617763096,-0.9279215306693186,-0.7617866656031785,-0.01019245199859142,0.002814495004713535,0.002381535246968269,-0.009950697422027588,-0.00247502326965332,0.007219195365905762,XArbitraryZVertical,-0.475541224958637,-0.2386644120620323,-0.195482386121157,0.8238242246862576,-0.579154908657074,0.6902154088020325,-0.433799684047699,41488.34302604167,unknown,2,2020-03-09 10:36:21.948 +0100,605439517.3889369,0,44261.24,100.3805
2020-03-09 10:38:39.119 +0100,1583746717.999734,52.56401567029761,13.41053871676452,47.28731,0,24.42975742000491,9.393086986469248,14.70342647683597,-9999,41574.06727041667,-0.58258056640625,0.6913299560546875,-0.4428558349609375,41574.06224541667,-0.8617616975585985,-0.9280378323925108,-0.7620406782227088,-0.03049133159220219,0.007693672552704811,0.001725065521895885,-0.005218923091888428,-0.003925204277038574,0.001858770847320557,XArbitraryZVertical,-0.4756732199234482,-0.2385820147213074,-0.195505321765147,0.8237664440333182,-0.5790650248527527,0.690399169921875,-0.4336272180080414,41488.34302604167,unknown,2,2020-03-09 10:36:21.948 +0100,605439517.3889369,0,44261.24,100.3805
2020-03-09 10:38:39.134 +0100,1583746717.999734,52.56401567029761,13.41053871676452,47.28731,0,24.42975742000491,9.393086986469248,14.70342647683597,-9999,41574.08234441667,-0.5788726806640625,0.687164306640625,-0.448822021484375,41574.07731941667,-0.8621851044736754,-0.9282197589669442,-0.7623930677924375,-0.02294764295220375,0.006730156019330025,0.005989952944219112,-0.004510760307312012,0.0004279017448425293,-0.01081317663192749,XArbitraryZVertical,-0.4758621355925316,-0.2384684672622876,-0.1955454330382235,0.8236806769011964,-0.5789490938186646,0.6906540393829346,-0.4333760440349579,41488.34302604167,unknown,2,2020-03-09 10:36:21.948 +0100,605439517.3889369,0,44261.24,100.3805
2020-03-09 10:38:39.167 +0100,1583746717.999734,52.56401567029761,13.41053871676452,47.28731,0,24.42975742000491,9.393086986469248,14.70342647683597,-9999,41574.09741841667,-0.57940673828125,0.6884765625,-0.435760498046875,41574.09239341667,-0.8624466862249556,-0.9282820541675837,-0.762693175794423,-0.01772204414010048,0.008979890495538712,0.01103940606117249,-7.206201553344727e-05,-0.003695309162139893,-0.01559686660766602,XArbitraryZVertical,-0.4760021034093038,-0.2383571207196147,-0.1955608316648642,0.8236283863207017,-0.5788100957870483,0.6908710598945618,-0.4332157671451569,41488.34302604167,unknown,2,2020-03-09 10:36:21.948 +0100,605439517.3889369,0,44261.24,100.3805
2020-03-09 10:38:39.169 +0100,1583746717.999734,52.56401567029761,13.41053871676452,47.28731,0,24.42975742000491,9.393086986469248,14.70342647683597,-9999,41574.11249241667,-0.5792236328125,0.692596435546875,-0.434051513671875,41574.10746741667,-0.8627635823628831,-0.9283997912328323,-0.7630483269435219,-0.03412525355815887,0.009080024436116219,0.009134979918599129,-0.003025174140930176,0.0001373291015625,0.001872897148132324,XArbitraryZVertical,-0.4761728819954636,-0.238241675267622,-0.1955715640903997,0.8235605194916934,-0.5786646008491516,0.6911277770996094,-0.4330005943775177,41488.34302604167,unknown,2,2020-03-09 10:36:21.948 +0100,605439517.3889369,0,44261.24,100.3805
2020-03-09 10:38:39.180 +0100,1583746717.999734,52.56401567029761,13.41053871676452,47.28731,0,24.42975742000491,9.393086986469248,14.70342647683597,-9999,41574.12756641667,-0.57012939453125,0.6971435546875,-0.431976318359375,41574.12254141667,-0.8630297159321951,-0.928530877827639,-0.7632822664265274,0.004240778274834156,-0.0005947072058916092,0.004304537549614906,-0.0006412267684936523,0.001311123371124268,-0.001214146614074707,XArbitraryZVertical,-0.4762973758171166,-0.2381739918565346,-0.1955895179289779,0.8235039148920397,-0.5785920023918152,0.6912968158721924,-0.4328279197216034,41488.34302604167,unknown,2,2020-03-09 10:36:21.948 +0100,605439517.3889369,0,44261.24,100.3805
2020-03-09 10:38:39.194 +0100,1583746717.999734,52.56401567029761,13.41053871676452,47.28731,0,24.42975742000491,9.393086986469248,14.70342647683597,-9999,41574.14263941667,-0.5690460205078125,0.705474853515625,-0.4315032958984375,41574.13761541667,-0.8627016881491458,-0.9284269870562383,-0.7630985720168266,0.03179127350449562,-0.01166042219847441,-0.004655302036553621,0.01049339771270752,0.008691668510437012,0.00198894739151001,XArbitraryZVertical,-0.4761853378812521,-0.2382550972201896,-0.195526632037438,0.8235601371312783,-0.5786486268043518,0.6911640763282776,-0.4329640567302704,41488.34302604167,unknown,2,2020-03-09 10:36:21.948 +0100,605439517.3889369,0,44261.24,100.3805
2020-03-09 10:38:39.209 +0100,1583746717.999734,52.56401567029761,13.41053871676452,47.28731,0,24.42975742000491,9.393086986469248,14.70342647683597,-9999,41574.15771341667,-0.569488525390625,0.696990966796875,-0.436004638671875,41574.15268941667,-0.8619350480455333,-0.9281123493832676,-0.7625287548000192,0.07260306179523468,-0.01435662060976028,-0.011492601595819,0.009771943092346191,0.01473408937454224,0.001888155937194824,XArbitraryZVertical,-0.4758682622272296,-0.2384499355916603,-0.1954329655238501,0.823709197819717,-0.5788275003433228,0.6907521486282349,-0.4333820641040802,41488.34302604167,unknown,2,2020-03-09 10:36:21.948 +0100,605439517.3889369,0,44261.24,100.3805
2020-03-09 10:38:39.224 +0100,1583746717.999734,52.56401567029761,13.41053871676452,47.28731,0,24.42975742000491,9.393086986469248,14.70342647683597,-9999,41574.17278741667,-0.578857421875,0.6896514892578125,-0.4332122802734375,41574.16776341667,-0.8609142884264768,-0.9275308188081655,-0.7617730178672137,0.0573083721101284,-0.00297083891928196,-0.007279614452272654,0.007312953472137451,0.001959741115570068,-5.644559860229492e-05,XArbitraryZVertical,-0.4754309287707551,-0.2386412646142513,-0.195345889406368,0.8239269277107535,-0.5789929032325745,0.6902055144309998,-0.4340315461158752,41488.34302604167,unknown,2,2020-03-09 10:36:21.948 +0100,605439517.3889369,0,44261.24,100.3805
2020-03-09 10:38:39.239 +0100,1583746717.999734,52.56401567029761,13.41053871676452,47.28731,0,24.42975742000491,9.393086986469248,14.70342647683597,-9999,41574.18786141667,-0.5798492431640625,0.68634033203125,-0.431610107421875,41574.18283741667,-0.8602955817152046,-0.9271138324555371,-0.7613513301178884,0.0261286124587059,0.004494268447160721,0.0005223825573921204,0.0001778006553649902,-0.0002375245094299316,0.001244604587554932,XArbitraryZVertical,-0.475171861816119,-0.2387213893706698,-0.1952988825413496,0.824064315066408,-0.5790446400642395,0.689900279045105,-0.4344475865364075,41488.34302604167,unknown,2,2020-03-09 10:36:21.948 +0100,605439517.3889369,0,44261.24,100.3805
2020-03-09 10:38:39.254 +0100,1583746717.999734,52.56401567029761,13.41053871676452,47.28731,0,24.42975742000491,9.393086986469248,14.70342647683597,-9999,41574.20293541667,-0.5810394287109375,0.672943115234375,-0.425079345703125,41574.19791141667,-0.8602841436870432,-0.9270097341417894,-0.761341384956484,-0.02090105973184109,0.01306062284857035,-0.0001786947250366211,0.0002448558807373047,-0.009477138519287109,0.004299700260162354,XArbitraryZVertical,-0.4751569287289413,-0.2386836843386466,-0.1953214632206915,0.8240784830663178,-0.5790048837661743,0.6898931264877319,-0.4345119893550873,41488.34302604167,unknown,2,2020-03-09 10:36:21.948 +0100,605439517.3889369,0,44261.24,100.3805
2020-03-09 10:38:39.270 +0100,1583746717.999734,52.56401567029761,13.41053871676452,47.28731,0,24.42975742000491,9.393086986469248,14.70342647683597,-9999,41574.21800941667,-0.5895538330078125,0.6794281005859375,-0.42279052734375,41574.21298441667,-0.8609937195871589,-0.9272424948566387,-0.761798205486162,-0.06272897124290466,0.02156110852956772,0.007374029606580734,-0.002195000648498535,-0.0172693133354187,0.009118020534515381,XArbitraryZVertical,-0.4754208496344304,-0.2384973423632296,-0.1954406596441757,0.823951969190117,-0.5788538455963135,0.690223753452301,-0.4341880679130554,41488.34302604167,unknown,2,2020-03-09 10:36:21.948 +0100,605439517.3889369,0,44261.24,100.3805
2020-03-09 10:38:39.285 +0100,1583746717.999734,52.56401567029761,13.41053871676452,47.28731,0,24.42975742000491,9.393086986469248,14.70342647683597,-9999,41574.23308341667,-0.5934295654296875,0.6812896728515625,-0.4299468994140625,41574.22805841667,-0.8622236791115171,-0.9277913454805337,-0.7626548996388895,-0.1006521806120872,0.01972075738012791,0.007317671552300453,-0.01283669471740723,-0.01244157552719116,0.008186221122741699,XArbitraryZVertical,-0.4759144251260624,-0.2382176465147876,-0.1955956649676989,0.8237111740543945,-0.5786186456680298,0.690843403339386,-0.4335156381130219,41488.34302604167,unknown,2,2020-03-09 10:36:21.948 +0100,605439517.3889369,0,44261.24,100.3805
2020-03-09 10:38:39.300 +0100,1583746717.999734,52.56401567029761,13.41053871676452,47.28731,0,24.42975742000491,9.393086986469248,14.70342647683597,-9999,41574.24815741667,-0.593658447265625,0.69415283203125,-0.4421234130859375,41574.24313241667,-0.8640991274453652,-0.9288125305511837,-0.7638666267671725,-0.1248432695865631,0.01662376895546913,0.01158618554472923,-0.01504886150360107,-0.01041781902313232,0.002485394477844238,XArbitraryZVertical,-0.4766520246889892,-0.2378894297771899,-0.1958116718573206,0.8233281007521243,-0.5783901810646057,0.6917189359664917,-0.432422935962677,41488.34302604167,unknown,2,2020-03-09 10:36:21.948 +0100,605439517.3889369,0,44261.24,100.3805
2020-03-09 10:38:39.315 +0100,1583746718.999715,52.5640241630907,13.41052993309227,47.25573,0,24.4297504653464,9.298409707602589,14.76348231971918,-9999,41574.26323141667,-0.5790557861328125,0.6937255859375,-0.45269775390625,41574.25820641667,-0.86509004029383,-0.9292604854335491,-0.7646343664681006,-0.006363910622894764,0.01063346210867167,0.01056759338825941,-0.01122200489044189,0.004836022853851318,-0.01422017812728882,XArbitraryZVertical,-0.4770759675269059,-0.237645912668601,-0.19591424001678,0.823128475237028,-0.5781581997871399,0.6922731995582581,-0.4318458735942841,41488.34302604167,unknown,2,2020-03-09 10:36:21.948 +0100,605439517.3889369,0,44261.24,100.3805
2020-03-09 10:38:39.330 +0100,1583746718.999715,52.5640241630907,13.41052993309227,47.25573,0,24.4297504653464,9.298409707602589,14.76348231971918,-9999,41574.27830541667,-0.57440185546875,0.701812744140625,-0.4384002685546875,41574.27328041667,-0.8645812110233848,-0.9288807145359599,-0.7645007032977217,0.0445057787001133,-0.009329888969659805,0.008178604766726494,-0.000997006893157959,0.0015602707862854,-0.02056753635406494,XArbitraryZVertical,-0.4769326587086146,-0.2376443332919183,-0.1958299515289362,0.8232320335202433,-0.5780682563781738,0.6921766996383667,-0.4321208298206329,41488.34302604167,unknown,2,2020-03-09 10:36:21.948 +0100,605439517.3889369,0,44261.24,100.3805
2020-03-09 10:38:39.345 +0100,1583746718.999715,52.5640241630907,13.41052993309227,47.25573,0,24.4297504653464,9.298409707602589,14.76348231971918,-9999,41574.29337941667,-0.5758819580078125,0.7077178955078125,-0.4364013671875,41574.28835441667,-0.8635941088371407,-0.9284170634584179,-0.7641103755084556,0.06580939143896103,-0.0184329878538847,0.007800103165209293,0.00295567512512207,0.01696336269378662,-0.003566920757293701,XArbitraryZVertical,-0.476636608244783,-0.2377861613536817,-0.1956350015978403,0.8234088021380834,-0.5780840516090393,0.6918949484825134,-0.4325505793094635,41488.34302604167,unknown,2,2020-03-09 10:36:21.948 +0100,605439517.3889369,0,44261.24,100.3805
2020-03-09 10:38:39.360 +0100,1583746718.999715,52.5640241630907,13.41052993309227,47.25573,0,24.4297504653464,9.298409707602589,14.76348231971918,-9999,41574.30845341667,-0.568695068359375,0.6981201171875,-0.4276275634765625,41574.30342841667,-0.862450789634288,-0.9279899361222003,-0.7635727658862573,0.05777303501963615,-0.02425545826554298,0.006059993989765644,0.00230562686920166,0.01622247695922852,-0.003371715545654297,XArbitraryZVertical,-0.476274990188896,-0.2380166910406022,-0.1954048839758609,0.8236060847311882,-0.5781968832015991,0.6915066838264465,-0.4330203831195831,41488.34302604167,unknown,2,2020-03-09 10:36:21.948 +0100,605439517.3889369,0,44261.24,100.3805
2020-03-09 10:38:39.375 +0100,1583746718.999715,52.5640241630907,13.41052993309227,47.25573,0,24.4297504653464,9.298409707602589,14.76348231971918,-9999,41574.32352741667,-0.567596435546875,0.697662353515625,-0.4239501953125,41574.31850241667,-0.861637486212929,-0.927752419155995,-0.7632034000307579,0.02691282145678997,-0.0146929332986474,0.003419135697185993,0.01125717163085938,0.009363412857055664,0.007859230041503906,XArbitraryZVertical,-0.4760285767657813,-0.238204504355516,-0.1952218626687449,0.8237376267042565,-0.5782983899116516,0.6912398338317871,-0.4333108067512512,41488.34302604167,unknown,2,2020-03-09 10:36:21.948 +0100,605439517.3889369,0,44261.24,100.3805
2020-03-09 10:38:39.390 +0100,1583746718.999715,52.5640241630907,13.41052993309227,47.25573,0,24.4297504653464,9.298409707602589,14.76348231971918,-9999,41574.33860041667,-0.5702362060546875,0.681182861328125,-0.4227447509765625,41574.33357641667,-0.8614567676450076,-0.9277565856451769,-0.7630909410269612,-0.001666550524532795,-0.002981032244861126,-0.0006653536111116409,0.01075661182403564,0.006515026092529297,0.009414017200469971,XArbitraryZVertical,-0.4759689792616185,-0.2382772238771403,-0.1951754629346637,0.8237619940386417,-0.5783623456954956,0.6911585927009583,-0.4333550035953522,41488.34302604167,unknown,2,2020-03-09 10:36:21.948 +0100,605439517.3889369,0,44261.24,100.3805
2020-03-09 10:38:39.405 +0100,1583746718.999715,52.5640241630907,13.41052993309227,47.25573,0,24.4297504653464,9.298409707602589,14.76348231971918,-9999,41574.35367441667,-0.5795135498046875,0.6843414306640625,-0.4173736572265625,41574.34865041667,-0.8617190921076845,-0.9279188218049551,-0.7632111842293673,-0.02766653522849083,0.004559324122965336,0.00117302592843771,0.005816519260406494,-0.01035648584365845,0.01230698823928833,XArbitraryZVertical,-0.4760571830233304,-0.2382516866517196,-0.1952138670310468,0.8237093832699879,-0.578366219997406,0.6912454962730408,-0.4332113862037659,41488.34302604167,unknown,2,2020-03-09 10:36:21.948 +0100,605439517.3889369,0,44261.24,100.3805
2020-03-09 10:38:39.420 +0100,1583746718.999715,52.5640241630907,13.41052993309227,47.25573,0,24.4297504653464,9.298409707602589,14.76348231971918,-9999,41574.36874841667,-0.5858612060546875,0.69366455078125,-0.4238433837890625,41574.36372441667,-0.8623007204692438,-0.9281587427121568,-0.7635538837868521,-0.05576341599225998,0.01409850176423788,0.002266253344714642,-0.001242518424987793,-0.00714033842086792,0.01556628942489624,XArbitraryZVertical,-0.4762671290603774,-0.2381266599617284,-0.1953077777812655,0.8236019260791554,-0.578280508518219,0.6914930939674377,-0.4329306185245514,41488.34302604167,unknown,2,2020-03-09 10:36:21.948 +0100,605439517.3889369,0,44261.24,100.3805
2020-03-09 10:38:39.435 +0100,1583746718.999715,52.5640241630907,13.41052993309227,47.25573,0,24.4297504653464,9.298409707602589,14.76348231971918,-9999,41574.38382241667,-0.5814208984375,0.6911773681640625,-0.4340057373046875,41574.37879841667,-0.8636010304834709,-0.9288779762553581,-0.7642755947599275,-0.09341380000114441,0.005955753847956657,-0.0007639247924089432,-0.008319556713104248,-0.0003679394721984863,0.003407001495361328,XArbitraryZVertical,-0.4767389847749615,-0.2379330474240317,-0.1954852870497978,0.8233426350266053,-0.5781917572021484,0.692014217376709,-0.4322156012058258,41488.34302604167,unknown,2,2020-03-09 10:36:21.948 +0100,605439517.3889369,0,44261.24,100.3805
2020-03-09 10:38:39.450 +0100,1583746718.999715,52.5640241630907,13.41052993309227,47.25573,0,24.4297504653464,9.298409707602589,14.76348231971918,-9999,41574.39889641667,-0.57843017578125,0.6986236572265625,-0.4369964599609375,41574.39387241667,-0.8650471823514596,-0.9297730190397423,-0.7651120903910871,-0.07581628113985062,0.009348619729280472,0.001768808811903,-0.003315865993499756,-0.001429438591003418,-0.002645015716552734,XArbitraryZVertical,-0.4772841997004021,-0.2377477350523667,-0.1956507131995529,0.8230409498004593,-0.5781142115592957,0.6926178336143494,-0.4313516020774841,41488.34302604167,unknown,2,2020-03-09 10:36:21.948 +0100,605439517.3889369,0,44261.24,100.3805
2020-03-09 10:38:39.466 +0100,1583746718.999715,52.5640241630907,13.41052993309227,47.25573,0,24.4297504653464,9.298409707602589,14.76348231971918,-9999,41574.413970375,-0.56329345703125,0.6509552001953125,-0.4389495849609375,41574.40894537501,-0.8661368637244036,-0.9303538809844285,-0.7656845399759217,-0.04603755474090576,0.003679711371660233,-0.006747414357960224,0.001957178115844727,0.002048790454864502,-0.01025217771530151,XArbitraryZVertical,-0.4776658590178839,-0.2375835515982215,-0.1958122549399206,0.8228285300661247,-0.5780466794967651,0.6930306553840637,-0.4307787716388702,41488.34302604167,unknown,2,2020-03-09 10:36:21.948 +0100,605439517.3889369,0,44261.24,100.3805
2020-03-09 10:38:39.481 +0100,1583746718.999715,52.5640241630907,13.41052993309227,47.25573,0,24.4297504653464,9.298409707602589,14.76348231971918,-9999,41574.429044375,-0.5854339599609375,0.726776123046875,-0.4268035888671875,41574.424019375,-0.867197741527043,-0.930824741118687,-0.7660903996379311,-0.05926627293229103,0.01731083542108536,-0.002240014262497425,0.01472127437591553,-0.04235696792602539,-0.008602023124694824,XArbitraryZVertical,-0.4779763433576762,-0.23742228480166,-0.1960310725390662,0.8226426715074957,-0.5780238509178162,0.6933231949806213,-0.4303385615348816,41488.34302604167,unknown,2,2020-03-09 10:36:21.948 +0100,605439517.3889369,0,44261.24,100.3805
2020-03-09 10:38:39.496 +0100,1583746718.999715,52.5640241630907,13.41052993309227,47.25573,0,24.4297504653464,9.298409707602589,14.76348231971918,-9999,41574.444118375,-0.587005615234375,0.7063446044921875,-0.4393310546875,41574.439093375,-0.8672496035280196,-0.9306099506415303,-0.7663493894229345,0.02248721942305565,0.009387990459799767,0.007970544509589672,-0.004039347171783447,0.03718358278274536,0.001745045185089111,XArbitraryZVertical,-0.4780497335075464,-0.2372567262287685,-0.1960366488878243,0.8226464376295159,-0.5777873396873474,0.6935098171234131,-0.4303553998470306,41488.34302604167,unknown,2,2020-03-09 10:36:21.948 +0100,605439517.3889369,0,44261.24,100.3805
2020-03-09 10:38:39.511 +0100,1583746718.999715,52.5640241630907,13.41052993309227,47.25573,0,24.4297504653464,9.298409707602589,14.76348231971918,-9999,41574.459192375,-0.5787811279296875,0.6981048583984375,-0.4206695556640625,41574.454167375,-0.8667176256579771,-0.9301702903114255,-0.7660741722292699,0.04216350615024567,0.002864710055291653,0.008788368664681911,-0.00926363468170166,0.01304411888122559,-0.008598506450653076,XArbitraryZVertical,-0.4778497056613051,-0.2372718554356179,-0.1959941566704623,0.8227684069578203,-0.577751100063324,0.6933115124702454,-0.4307234585285187,41488.34302604167,unknown,2,2020-03-09 10:36:21.948 +0100,605439517.3889369,0,44261.24,100.3805
2020-03-09 10:38:39.526 +0100,1583746718.999715,52.5640241630907,13.41052993309227,47.25573,0,24.4297504653464,9.298409707602589,14.76348231971918,-9999,41574.474266375,-0.5825347900390625,0.6822357177734375,-0.4256591796875,41574.469241375,-0.8660084951665223,-0.9297108304907912,-0.7658307605502336,0.02143462188541889,-0.001016920432448387,0.002984241582453251,-0.001086592674255371,0.006856560707092285,0.01258063316345215,XArbitraryZVertical,-0.4776375373446291,-0.2373130793144028,-0.1958751642066324,0.8229080325693905,-0.5776883363723755,0.6931360363960266,-0.4310897588729858,41488.34302604167,unknown,2,2020-03-09 10:36:21.948 +0100,605439517.3889369,0,44261.24,100.3805
2020-03-09 10:38:39.541 +0100,1583746718.999715,52.5640241630907,13.41052993309227,47.25573,0,24.4297504653464,9.298409707602589,14.76348231971918,-9999,41574.489340375,-0.5788421630859375,0.6823883056640625,-0.429534912109375,41574.484315375,-0.8657935088981603,-0.9295595769865249,-0.765745515899818,0.005000254139304161,-0.006489716470241547,0.002484632655978203,-0.004873335361480713,-0.01082795858383179,0.005562245845794678,XArbitraryZVertical,-0.4775681266406055,-0.237323491027111,-0.1958448851425516,0.8229525254227941,-0.5776704549789429,0.6930745840072632,-0.4312124848365784,41488.34302604167,unknown,2,2020-03-09 10:36:21.948 +0100,605439517.3889369,0,44261.24,100.3805
2020-03-09 10:38:39.556 +0100,1583746718.999715,52.5640241630907,13.41052993309227,47.25573,0,24.4297504653464,9.298409707602589,14.76348231971918,-9999,41574.50441437501,-0.5800018310546875,0.6949005126953125,-0.4407806396484375,41574.499389375,-0.8658129704120698,-0.9296667085826266,-0.7658296023544414,-0.01689252816140652,-0.004788519814610481,0.005600998178124428,-0.000250399112701416,-0.003961086273193359,0.0001860260963439941,XArbitraryZVertical,-0.4776095952266001,-0.2373419198333363,-0.1958055637319256,0.8229325429784436,-0.5776700377464294,0.6931352019309998,-0.4311157763004303,41488.34302604167,unknown,2,2020-03-09 10:36:21.948 +0100,605439517.3889369,0,44261.24,100.3805
2020-03-09 10:38:39.571 +0100,1583746718.999715,52.5640241630907,13.41052993309227,47.25573,0,24.4297504653464,9.298409707602589,14.76348231971918,-9999,41574.519488375,-0.576202392578125,0.6863555908203125,-0.452545166015625,41574.514463375,-0.8659132470082171,-0.9297520778350304,-0.7659413107959974,0.0002105208113789558,-0.0005576144903898239,0.002161525189876556,-0.002366065979003906,0.001695752143859863,-0.009751439094543457,XArbitraryZVertical,-0.4776679531896806,-0.2373251820315221,-0.1957975332872998,0.8229054323776004,-0.5776447653770447,0.6932157278060913,-0.4310201704502106,41488.34302604167,unknown,2,2020-03-09 10:36:21.948 +0100,605439517.3889369,0,44261.24,100.3805
2020-03-09 10:38:39.586 +0100,1583746718.999715,52.5640241630907,13.41052993309227,47.25573,0,24.4297504653464,9.298409707602589,14.76348231971918,-9999,41574.534562375,-0.573638916015625,0.679931640625,-0.4459075927734375,41574.52953737501,-0.8657790431094232,-0.9296314676194266,-0.7659332122190989,0.01992563530802727,0.007352240383625031,0.004426010884344578,0.002576112747192383,-0.00727081298828125,-0.02071070671081543,XArbitraryZVertical,-0.4776374773426329,-0.2373096226336095,-0.1957732043341054,0.822933362133269,-0.5775972604751587,0.6932098865509033,-0.431093156337738,41488.34302604167,unknown,2,2020-03-09 10:36:21.948 +0100,605439517.3889369,0,44261.24,100.3805
2020-03-09 10:38:39.601 +0100,1583746718.999715,52.5640241630907,13.41052993309227,47.25573,0,24.4297504653464,9.298409707602589,14.76348231971918,-9999,41574.54963537501,-0.5734710693359375,0.684051513671875,-0.439056396484375,41574.544611375,-0.8656956265941748,-0.9294768341281425,-0.7659875138209328,-0.02458563819527626,0.00421716645359993,0.004854513332247734,0.003852546215057373,-0.01330655813217163,-0.01473867893218994,XArbitraryZVertical,-0.4776309567300785,-0.2372523526471635,-0.1957617674401219,0.8229564107083068,-0.5775004625320435,0.6932490468025208,-0.4311599731445312,41488.34302604167,unknown,2,2020-03-09 10:36:21.948 +0100,605439517.3889369,0,44261.24,100.3805
2020-03-09 10:38:39.616 +0100,1583746718.999715,52.5640241630907,13.41052993309227,47.25573,0,24.4297504653464,9.298409707602589,14.76348231971918,-9999,41574.564709375,-0.57373046875,0.6995849609375,-0.4315185546875,41574.559685375,-0.8664007911066457,-0.9299916726288653,-0.7665404471584589,-0.0642242431640625,-0.007363057229667902,0.01379960495978594,0.003522992134094238,-0.004244565963745117,-0.008368372917175293,XArbitraryZVertical,-0.4779536145580141,-0.2371574710084481,-0.1957857865912206,0.8227906724604175,-0.5774149298667908,0.6936474442481995,-0.4306333661079407,41488.34302604167,unknown,2,2020-03-09 10:36:21.948 +0100,605439517.3889369,0,44261.24,100.3805
2020-03-09 10:38:39.631 +0100,1583746718.999715,52.5640241630907,13.41052993309227,47.25573,0,24.4297504653464,9.298409707602589,14.76348231971918,-9999,41574.579783375,-0.5697174072265625,0.696929931640625,-0.4339447021484375,41574.57475937501,-0.8674716014747448,-0.9309522187393848,-0.7673392801627308,-0.07652364671230316,-0.02277072891592979,0.01502449251711369,0.003644347190856934,0.005373060703277588,-0.001762211322784424,XArbitraryZVertical,-0.4784468669334638,-0.2370966545688796,-0.1957896706840563,0.8225205595800777,-0.5773836374282837,0.694222629070282,-0.4297475516796112,41488.34302604167,unknown,2,2020-03-09 10:36:21.948 +0100,605439517.3889369,0,44261.24,100.3805
2020-03-09 10:38:39.656 +0100,1583746718.999715,52.5640241630907,13.41052993309227,47.25573,0,24.4297504653464,9.298409707602589,14.76348231971918,-9999,41574.594857375,-0.5772705078125,0.6851043701171875,-0.4356231689453125,41574.589833375,-0.8685727940893118,-0.9320228401528189,-0.7681844104257047,-0.07001186162233353,-0.02037398889660835,0.01075055170804262,0.004975676536560059,-0.001689553260803223,-0.004042923450469971,XArbitraryZVertical,-0.4789699689651634,-0.237061595778194,-0.1957670875691798,0.8222314844920283,-0.577372133731842,0.6948306560516357,-0.428779125213623,41488.34302604167,unknown,2,2020-03-09 10:36:21.948 +0100,605439517.3889369,0,44261.24,100.3805
2020-03-09 10:38:39.661 +0100,1583746718.999715,52.5640241630907,13.41052993309227,47.25573,0,24.4297504653464,9.298409707602589,14.76348231971918,-9999,41574.609931375,-0.579986572265625,0.6940155029296875,-0.435333251953125,41574.604906375,-0.8696489959016688,-0.9331340956884352,-0.7689540779498173,-0.08404725044965744,-0.03005910664796829,0.01364833768457174,0.0001391768455505371,-0.01026898622512817,-0.007795631885528564,XArbitraryZVertical,-0.479468036411264,-0.2370675119193414,-0.195743455041784,0.8219451008843937,-0.5774184465408325,0.6953839659690857,-0.4278188049793243,41488.34302604167,unknown,2,2020-03-09 10:36:21.948 +0100,605439517.3889369,0,44261.24,100.3805
2020-03-09 10:38:39.676 +0100,1583746718.999715,52.5640241630907,13.41052993309227,47.25573,0,24.4297504653464,9.298409707602589,14.76348231971918,-9999,41574.625005375,-0.5787353515625,0.7041015625,-0.441650390625,41574.61998037501,-0.8708438740220956,-0.934451070611138,-0.769909970262691,-0.07927249372005463,-0.0381055660545826,0.01971099153161049,-0.006439685821533203,0.005157530307769775,-0.01143890619277954,XArbitraryZVertical,-0.4800632192964752,-0.2370820571513941,-0.1956701697195649,0.8216109290499671,-0.5774465203285217,0.6960706114768982,-0.426662802696228,41488.34302604167,unknown,2,2020-03-09 10:36:21.948 +0100,605439517.3889369,0,44261.24,100.3805
2020-03-09 10:38:39.692 +0100,1583746718.999715,52.5640241630907,13.41052993309227,47.25573,0,24.4297504653464,9.298409707602589,14.76348231971918,-9999,41574.640079375,-0.5733642578125,0.6977081298828125,-0.4374847412109375,41574.635054375,-0.8719060745263353,-0.9357594743296225,-0.7708106402329031,-0.07604239881038666,-0.03106273338198662,0.0142994150519371,-0.001244604587554932,0.007394909858703613,-0.01610702276229858,XArbitraryZVertical,-0.4806227013759446,-0.237137968529188,-0.1955579208234381,0.8212943240044059,-0.5774992704391479,0.6967169642448425,-0.4255348145961761,41488.34302604167,unknown,2,2020-03-09 10:36:21.948 +0100,605439517.3889369,0,44261.24,100.3805
2020-03-09 10:38:39.707 +0100,1583746718.999715,52.5640241630907,13.41052993309227,47.25573,0,24.4297504653464,9.298409707602589,14.76348231971918,-9999,41574.655153375,-0.5670318603515625,0.6853790283203125,-0.4242401123046875,41574.650128375,-0.8724512109000319,-0.9364888058258178,-0.771307649222129,-0.03876367956399918,-0.01615052670240402,0.008163657039403915,0.006721258163452148,-0.006633341312408447,-0.01156079769134521,XArbitraryZVertical,-0.4809270759288642,-0.2371813856358381,-0.1954770565123231,0.8211228856613685,-0.577530562877655,0.6970734000205994,-0.4249082803726196,41488.34302604167,unknown,2,2020-03-09 10:36:21.948 +0100,605439517.3889369,0,44261.24,100.3805
2020-03-09 10:38:39.722 +0100,1583746718.999715,52.5640241630907,13.41052993309227,47.25573,0,24.4297504653464,9.298409707602589,14.76348231971918,-9999,41574.67022737501,-0.59161376953125,0.6795501708984375,-0.423675537109375,41574.665202375,-0.8738943965745769,-0.9375233253112344,-0.7722014549246998,-0.1361554712057114,0.006932157091796398,0.00379767082631588,0.01042699813842773,-0.01232457160949707,-0.0002898573875427246,XArbitraryZVertical,-0.4815019764375777,-0.2370337537283751,-0.195587657024912,0.8208021879344425,-0.5774673223495483,0.6977139711380005,-0.4239417016506195,41488.34302604167,unknown,2,2020-03-09 10:36:21.948 +0100,605439517.3889369,0,44261.24,100.3805
2020-03-09 10:38:39.737 +0100,1583746718.999715,52.5640241630907,13.41052993309227,47.25573,0,24.4297504653464,9.298409707602589,14.76348231971918,-9999,41574.685301375,-0.5935211181640625,0.699554443359375,-0.4138641357421875,41574.680276375,-0.8766496952946617,-0.9394283009014041,-0.7738624509128006,-0.2080589383840561,-0.008820130489766598,0.02175233885645866,-0.01600897312164307,-0.01508516073226929,0.003723025321960449,XArbitraryZVertical,-0.4825761706672173,-0.2367321913125125,-0.1958254707492086,0.8202014184830241,-0.5773375630378723,0.6989029049873352,-0.4221562147140503,41488.34302604167,unknown,2,2020-03-09 10:36:21.948 +0100,605439517.3889369,0,44261.24,100.3805
2020-03-09 10:38:39.752 +0100,1583746718.999715,52.5640241630907,13.41052993309227,47.25573,0,24.4297504653464,9.298409707602589,14.76348231971918,-9999,41574.700375375,-0.590606689453125,0.69866943359375,-0.4143829345703125,41574.695350375,-0.8804697640241695,-0.9422915457279819,-0.7763365638525249,-0.2647124528884888,-0.02006254717707634,0.03269919380545616,-0.01638609170913696,-0.001105546951293945,0.005627989768981934,XArbitraryZVertical,-0.4841423394326693,-0.2363565908847699,-0.1960521915890497,0.8193321571639384,-0.5771434307098389,0.7006703019142151,-0.4194835126399994,41488.34302604167,unknown,2,2020-03-09 10:36:21.948 +0100,605439517.3889369,0,44261.24,100.3805
2020-03-09 10:38:39.767 +0100,1583746718.999715,52.5640241630907,13.41052993309227,47.25573,0,24.4297504653464,9.298409707602589,14.76348231971918,-9999,41574.71544937501,-0.5719757080078125,0.6920013427734375,-0.403411865234375,41574.710424375,-0.884429229025063,-0.9454515746908523,-0.7790603317426781,-0.252852737903595,-0.03281268104910851,0.0405222624540329,-0.008022189140319824,-0.007608592510223389,0.003156483173370361,XArbitraryZVertical,-0.4858344929367675,-0.2359986809230258,-0.1961926146804544,0.8183995723108796,-0.5769166946411133,0.7026110887527466,-0.4165389239788055,41488.34302604167,unknown,2,2020-03-09 10:36:21.948 +0100,605439517.3889369,0,44261.24,100.3805
2020-03-09 10:38:39.782 +0100,1583746718.999715,52.5640241630907,13.41052993309227,47.25573,0,24.4297504653464,9.298409707602589,14.76348231971918,-9999,41574.730523375,-0.5654296875,0.712982177734375,-0.4017486572265625,41574.725498375,-0.8882900353862183,-0.9486312197189924,-0.7818589281844066,-0.2626733779907227,-0.03185421228408813,0.04728216305375099,0.004653811454772949,-0.01258790493011475,0.01015168428421021,XArbitraryZVertical,-0.4875380803478779,-0.2356463784333872,-0.1962615286697555,0.8174708905465621,-0.5766380429267883,0.7045997381210327,-0.4135548174381256,41488.34302604167,unknown,2,2020-03-09 10:36:21.948 +0100,605439517.3889369,0,44261.24,100.3805
2020-03-09 10:38:39.797 +0100,1583746718.999715,52.5640241630907,13.41052993309227,47.25573,0,24.4297504653464,9.298409707602589,14.76348231971918,-9999,41574.745596375,-0.5627593994140625,0.7164459228515625,-0.4097137451171875,41574.74057237501,-0.8918950573951637,-0.9515174904113797,-0.7845354030295225,-0.2297980040311813,-0.01946568861603737,0.04383263736963272,0.01091444492340088,0.01037192344665527,0.002735614776611328,XArbitraryZVertical,-0.4891380191633286,-0.2352608564654489,-0.1963233532715568,0.8166108782775617,-0.576291561126709,0.7064964771270752,-0.4107926487922668,41488.34302604167,unknown,2,2020-03-09 10:36:21.948 +0100,605439517.3889369,0,44261.24,100.3805
2020-03-09 10:38:39.812 +0100,1583746718.999715,52.5640241630907,13.41052993309227,47.25573,0,24.4297504653464,9.298409707602589,14.76348231971918,-9999,41574.76067037501,-0.5698699951171875,0.7002105712890625,-0.4183502197265625,41574.755646375,-0.8949131013203045,-0.9538713988756234,-0.7866425894246172,-0.1829304248094559,-0.01109973806887865,0.02453627251088619,0.01327341794967651,0.00847017765045166,-0.001132190227508545,XArbitraryZVertical,-0.4904241735475012,-0.2349420041560576,-0.1964212959924425,0.8159073762825674,-0.5760413408279419,0.7079861760139465,-0.4085727632045746,41488.34302604167,unknown,2,2020-03-09 10:36:21.948 +0100,605439517.3889369,0,44261.24,100.3805
2020-03-09 10:38:39.827 +0100,1583746718.999715,52.5640241630907,13.41052993309227,47.25573,0,24.4297504653464,9.298409707602589,14.76348231971918,-9999,41574.775744375,-0.5905609130859375,0.697265625,-0.4365997314453125,41574.770720375,-0.8983968884943518,-0.9565039877901123,-0.7886478549220223,-0.2293878346681595,-0.005772986449301243,0.01490005757659674,0.0008261203765869141,-0.01110243797302246,-0.01621031761169434,XArbitraryZVertical,-0.4917562307853403,-0.2346442540365865,-0.1966638028425201,0.8151325136318094,-0.5759536027908325,0.7094009518623352,-0.4062357544898987,41488.34302604167,unknown,2,2020-03-09 10:36:21.948 +0100,605439517.3889369,0,44261.24,100.3805
2020-03-09 10:38:39.842 +0100,1583746718.999715,52.5640241630907,13.41052993309227,47.25573,0,24.4297504653464,9.298409707602589,14.76348231971918,-9999,41574.790818375,-0.5860748291015625,0.7158355712890625,-0.426544189453125,41574.78579437501,-0.9023663374477557,-0.9593946981526236,-0.7908099485732695,-0.2123774290084839,-0.01589220017194748,0.005372331477701664,-0.01470106840133667,-0.01364690065383911,-0.03290301561355591,XArbitraryZVertical,-0.493219971496732,-0.2342864469915973,-0.1969943062588689,0.8142708694531802,-0.5758683085441589,0.7109231352806091,-0.4036878347396851,41488.34302604167,unknown,2,2020-03-09 10:36:21.948 +0100,605439517.3889369,0,44261.24,100.3805
2020-03-09 10:38:39.858 +0100,1583746718.999715,52.5640241630907,13.41052993309227,47.25573,0,24.4297504653464,9.298409707602589,14.76348231971918,-9999,41574.805892375,-0.5804443359375,0.7674102783203125,-0.411102294921875,41574.800868375,-0.9050669415319805,-0.9617851693190087,-0.7922225225673231,-0.1243349835276604,-0.04439058154821396,0.009750002063810825,-0.0009816884994506836,0.02365994453430176,-0.01170808076858521,XArbitraryZVertical,-0.4942368535652572,-0.2342270912950225,-0.1971269402008362,0.8136390099525928,-0.5760073661804199,0.7119158506393433,-0.4017352163791656,41488.34302604167,unknown,2,2020-03-09 10:36:21.948 +0100,605439517.3889369,0,44261.24,100.3805
2020-03-09 10:38:39.873 +0100,1583746718.999715,52.5640241630907,13.41052993309227,47.25573,0,24.4297504653464,9.298409707602589,14.76348231971918,-9999,41574.820966375,-0.5565643310546875,0.7167510986328125,-0.421173095703125,41574.815941375,-0.9069463358679858,-0.9638830210551222,-0.7931915036861434,-0.08941657096147537,-0.06201937794685364,-0.004727006889879704,-0.004170894622802734,0.05482494831085205,-0.01096099615097046,XArbitraryZVertical,-0.494982065274355,-0.2343642486445406,-0.1971138420812806,0.8131495131575636,-0.5762819647789001,0.7125959992408752,-0.4001322984695435,41488.34302604167,unknown,2,2020-03-09 10:36:21.948 +0100,605439517.3889369,0,44261.24,100.3805
2020-03-09 10:38:39.888 +0100,1583746718.999715,52.5640241630907,13.41052993309227,47.25573,0,24.4297504653464,9.298409707602589,14.76348231971918,-9999,41574.836040375,-0.5341033935546875,0.7122955322265625,-0.4037933349609375,41574.831015375,-0.9086207684031338,-0.9662371277952126,-0.7939240722406948,-0.1009174063801765,-0.08851565420627594,-0.004637359175831079,0.03187739849090576,-0.00573199987411499,-0.01461434364318848,XArbitraryZVertical,-0.4956505315219487,-0.2347161546792357,-0.1970155453757827,0.8126645159052506,-0.5767927169799805,0.7131097316741943,-0.3984777629375458,41488.34302604167,unknown,2,2020-03-09 10:36:21.948 +0100,605439517.3889369,0,44261.24,100.3805
2020-03-09 10:38:39.903 +0100,1583746718.999715,52.5640241630907,13.41052993309227,47.25573,0,24.4297504653464,9.298409707602589,14.76348231971918,-9999,41574.851114375,-0.532196044921875,0.7286529541015625,-0.4040985107421875,41574.846089375,-0.9102384470820405,-0.9687630867862138,-0.7944889553372749,-0.05201138556003571,-0.09696853160858154,-0.02055320888757706,0.04335308074951172,-0.001199185848236084,-0.006992757320404053,XArbitraryZVertical,-0.4962741721524199,-0.2351941483945265,-0.1968949588662543,0.8121747660078975,-0.577465295791626,0.7135056257247925,-0.3967913091182709,41488.34302604167,unknown,2,2020-03-09 10:36:21.948 +0100,605439517.3889369,0,44261.24,100.3805
2020-03-09 10:38:39.918 +0100,1583746718.999715,52.5640241630907,13.41052993309227,47.25573,0,24.4297504653464,9.298409707602589,14.76348231971918,-9999,41574.866188375,-0.5441131591796875,0.7729034423828125,-0.3907470703125,41574.861163375,-0.9106036450793304,-0.9705244666866457,-0.7940294094819856,0.04402526840567589,-0.1111456155776978,-0.04228144139051437,0.04526758193969727,0.02346080541610718,-0.003583252429962158,XArbitraryZVertical,-0.4963403102086018,-0.2359383441030656,-0.1967294349237298,0.8119586468077832,-0.5784338712692261,0.713183581829071,-0.3959587812423706,41488.34302604167,unknown,2,2020-03-09 10:36:21.948 +0100,605439517.3889369,0,44261.24,100.3805
2020-03-09 10:38:39.934 +0100,1583746718.999715,52.5640241630907,13.41052993309227,47.25573,0,24.4297504653464,9.298409707602589,14.76348231971918,-9999,41574.88126237501,-0.5638885498046875,0.7341156005859375,-0.4176177978515625,41574.876237375,-0.9091309329152428,-0.9710796296330529,-0.7923702504786329,0.2009155452251434,-0.1042189970612526,-0.0670807957649231,0.0355074405670166,0.06089484691619873,0.005567073822021484,XArbitraryZVertical,-0.4956785442464272,-0.2369606616497574,-0.1964390095888648,0.8121354150353614,-0.5796294808387756,0.7120195627212524,-0.3963048458099365,41488.34302604167,unknown,2,2020-03-09 10:36:21.948 +0100,605439517.3889369,0,44261.24,100.3805
2020-03-09 10:38:39.948 +0100,1583746718.999715,52.5640241630907,13.41052993309227,47.25573,0,24.4297504653464,9.298409707602589,14.76348231971918,-9999,41574.896336375,-0.585418701171875,0.7043914794921875,-0.4112396240234375,41574.891311375,-0.9059343623248671,-0.9706594438120703,-0.7893604155949379,0.2372265309095383,-0.1429941207170486,-0.09296871721744537,0.01150256395339966,0.005684256553649902,-0.02104169130325317,XArbitraryZVertical,-0.4942719689142009,-0.2383626698878218,-0.1960517409266091,0.8126758566149477,-0.5812289118766785,0.7099029421806335,-0.3977569043636322,41488.34302604167,unknown,2,2020-03-09 10:36:21.948 +0100,605439517.3889369,0,44261.24,100.3805
2020-03-09 10:38:39.963 +0100,1583746718.999715,52.5640241630907,13.41052993309227,47.25573,0,24.4297504653464,9.298409707602589,14.76348231971918,-9999,41574.911410375,-0.6186676025390625,0.71490478515625,-0.428070068359375,41574.906385375,-0.9033155745535173,-0.971148298170085,-0.7865658651502373,0.1775954216718674,-0.1701668798923492,-0.07643181830644608,-0.0023689866065979,-0.003529489040374756,-0.01263952255249023,XArbitraryZVertical,-0.4930896923969543,-0.2399316148290435,-0.1956155365166157,0.8130373684892572,-0.583058774471283,0.7079319953918457,-0.3985907435417175,41488.34302604167,unknown,2,2020-03-09 10:36:21.948 +0100,605439517.3889369,0,44261.24,100.3805
2020-03-09 10:38:39.978 +0100,1583746718.999715,52.5640241630907,13.41052993309227,47.25573,0,24.4297504653464,9.298409707602589,14.76348231971918,-9999,41574.92648437501,-0.6279449462890625,0.70892333984375,-0.4356536865234375,41574.921459375,-0.9012287144403492,-0.972484076539627,-0.7843876179599593,0.1412118673324585,-0.2103494107723236,-0.05722813308238983,-0.03929126262664795,0.008173048496246338,-0.0359426736831665,XArbitraryZVertical,-0.4922531072534074,-0.241551856583774,-0.1950216363895768,0.8132071911969302,-0.5848634243011475,0.7063918709754944,-0.3986791670322418,41488.34302604167,unknown,2,2020-03-09 10:36:21.948 +0100,605439517.3889369,0,44261.24,100.3805
2020-03-09 10:38:39.993 +0100,1583746718.999715,52.5640241630907,13.41052993309227,47.25573,0,24.4297504653464,9.298409707602589,14.76348231971918,-9999,41574.941557375,-0.6209259033203125,0.66925048828125,-0.43267822265625,41574.936533375,-0.8995060469351073,-0.9746803677514966,-0.7827661839411163,0.1152039170265198,-0.2407002747058868,-0.03841526061296463,-0.04126948118209839,0.003691196441650391,-0.03760802745819092,XArbitraryZVertical,-0.4917247713803354,-0.2432871887092642,-0.1942155602481997,0.8132024310133251,-0.5866846442222595,0.7052432298660278,-0.3980361819267273,41488.34302604167,unknown,2,2020-03-09 10:36:21.948 +0100,605439517.3889369,0,44261.24,100.3805
2020-03-09 10:38:40.008 +0100,1583746718.999715,52.5640241630907,13.41052993309227,47.25573,0,24.4297504653464,9.298409707602589,14.76348231971918,-9999,41574.956631375,-0.6134185791015625,0.622833251953125,-0.4238739013671875,41574.95160737501,-0.8984397408389976,-0.9776142636714965,-0.7818829124712884,0.02267715707421303,-0.2514253854751587,-0.01375881861895323,-0.02751809358596802,-0.0563666820526123,-0.03550398349761963,XArbitraryZVertical,-0.491588338372445,-0.2449699065355901,-0.1932978879421568,0.8129984261010337,-0.5883662700653076,0.7046167850494385,-0.3966613113880157,41488.34302604167,unknown,2,2020-03-09 10:36:21.948 +0100,605439517.3889369,0,44261.24,100.3805
2020-03-09 10:38:40.023 +0100,1583746718.999715,52.5640241630907,13.41052993309227,47.25573,0,24.4297504653464,9.298409707602589,14.76348231971918,-9999,41574.971705375,-0.607757568359375,0.6430206298828125,-0.4088592529296875,41574.966681375,-0.8992690522351103,-0.9819175308293439,-0.7824590477914091,-0.1387253254652023,-0.242494210600853,0.03005018085241318,-0.02369749546051025,-0.08218133449554443,-0.0299643874168396,XArbitraryZVertical,-0.4922943878825157,-0.2463658718703424,-0.1924214275163463,0.812357023226368,-0.5897300839424133,0.7050254344940186,-0.3939001858234406,41488.34302604167,unknown,2,2020-03-09 10:36:21.948 +0100,605439517.3889369,0,44261.24,100.3805
2020-03-09 10:38:40.038 +0100,1583746718.999715,52.5640241630907,13.41052993309227,47.25573,0,24.4297504653464,9.298409707602589,14.76348231971918,-9999,41574.986779375,-0.5989227294921875,0.657318115234375,-0.395172119140625,41574.981755375,-0.9021854066895398,-0.9875446618582991,-0.7848115891414936,-0.2580943703651428,-0.2367247939109802,0.07202106714248657,-0.01239359378814697,-0.0522162914276123,-0.01514530181884766,XArbitraryZVertical,-0.4939645874883052,-0.2473226947622441,-0.1915827721999394,0.8112498792531238,-0.5905511975288391,0.7066918611526489,-0.3896609544754028,41488.34302604167,unknown,2,2020-03-09 10:36:21.948 +0100,605439517.3889369,0,44261.24,100.3805
2020-03-09 10:38:40.054 +0100,1583746718.999715,52.5640241630907,13.41052993309227,47.25573,0,24.4297504653464,9.298409707602589,14.76348231971918,-9999,41575.001853375,-0.6051788330078125,0.6850738525390625,-0.39068603515625,41574.996829375,-0.9071056272025275,-0.9946156783831391,-0.788507176678399,-0.3897346556186676,-0.2375950664281845,0.08337545394897461,-0.007834017276763916,-0.05197280645370483,-0.0111127495765686,XArbitraryZVertical,-0.4964531074034441,-0.2480107838125998,-0.1908235937260952,0.8096982078448386,-0.5910977125167847,0.709301769733429,-0.3840499222278595,41488.34302604167,unknown,2,2020-03-09 10:36:21.948 +0100,605439517.3889369,0,44261.24,100.3805
2020-03-09 10:38:40.069 +0100,1583746718.999715,52.5640241630907,13.41052993309227,47.25573,0,24.4297504653464,9.298409707602589,14.76348231971918,-9999,41575.016927375,-0.600433349609375,0.739715576171875,-0.38226318359375,41575.011902375,-0.9133819562343587,-1.002694360454415,-0.7927012401665913,-0.3952776491641998,-0.2554657459259033,0.06948649883270264,-0.0147557258605957,-0.009222745895385742,-0.01785522699356079,XArbitraryZVertical,-0.499358046867401,-0.2486210541952665,-0.1902064675684544,0.8078678252534859,-0.5916681885719299,0.7122519612312317,-0.3776582181453705,41488.34302604167,unknown,2,2020-03-09 10:36:21.948 +0100,605439517.3889369,0,44261.24,100.3805
2020-03-09 10:38:40.084 +0100,1583746718.999715,52.5640241630907,13.41052993309227,47.25573,0,24.4297504653464,9.298409707602589,14.76348231971918,-9999,41575.032001375,-0.607330322265625,0.79388427734375,-0.374542236328125,41575.026976375,-0.9190452184368455,-1.010843555906129,-0.7962212529538175,-0.302160769701004,-0.2898735105991364,0.05050109326839447,-0.007844328880310059,0.02500838041305542,-0.01076322793960571,XArbitraryZVertical,-0.5019667328106654,-0.2495682478500385,-0.1894856444998698,0.8061266264221503,-0.5925981998443604,0.7147182822227478,-0.3714901804924011,41488.34302604167,unknown,2,2020-03-09 10:36:21.948 +0100,605439517.3889369,0,44261.24,100.3805
2020-03-09 10:38:40.099 +0100,1583746718.999715,52.5640241630907,13.41052993309227,47.25573,0,24.4297504653464,9.298409707602589,14.76348231971918,-9999,41575.04707537501,-0.60699462890625,0.7595062255859375,-0.3724212646484375,41575.042050375,-0.9229711703709953,-1.018252635097961,-0.7984652544309354,-0.1775586605072021,-0.3271031975746155,0.02591868676245213,-0.01668286323547363,0.07815855741500854,-0.008774042129516602,XArbitraryZVertical,-0.50387391329569,-0.2509735393272992,-0.1885844007820479,0.804710609730254,-0.5939676761627197,0.7162860035896301,-0.3662467300891876,41488.34302604167,unknown,2,2020-03-09 10:36:21.948 +0100,605439519.9571381,0,44261.14,100.3804
2020-03-09 10:38:40.114 +0100,1583746718.999715,52.5640241630907,13.41052993309227,47.25573,0,24.4297504653464,9.298409707602589,14.76348231971918,-9999,41575.062149375,-0.623199462890625,0.7179107666015625,-0.363739013671875,41575.057124375,-0.9254457177882456,-1.0251241421543,-0.7997225902746269,-0.1513263285160065,-0.3449636101722717,0.008276707492768764,-0.01130378246307373,0.04235446453094482,-0.01072251796722412,XArbitraryZVertical,-0.5052305503049802,-0.2527797879374413,-0.1874972349268572,0.8035478180800979,-0.5956999659538269,0.7171627879142761,-0.3616889417171478,41488.34302604167,unknown,2,2020-03-09 10:36:21.948 +0100,605439519.9571381,0,44261.14,100.3804
2020-03-09 10:38:40.129 +0100,1583746718.999715,52.5640241630907,13.41052993309227,47.25573,0,24.4297504653464,9.298409707602589,14.76348231971918,-9999,41575.077223375,-0.6556243896484375,0.7014617919921875,-0.3658447265625,41575.072198375,-0.9289161156057236,-1.032787025036069,-0.801179813414317,-0.2396411895751953,-0.3460376858711243,0.004850053228437901,-0.04072833061218262,-0.007549464702606201,-0.007960081100463867,XArbitraryZVertical,-0.5068473610257489,-0.2545916615751714,-0.1865456386341027,0.8021779001850633,-0.597555935382843,0.7181775569915771,-0.3565776646137238,41488.34302604167,unknown,2,2020-03-09 10:36:21.948 +0100,605439519.9571381,0,44261.14,100.3804
2020-03-09 10:38:40.170 +0100,1583746718.999715,52.5640241630907,13.41052993309227,47.25573,0,24.4297504653464,9.298409707602589,14.76348231971918,-9999,41575.09229737501,-0.684356689453125,0.7120819091796875,-0.3773345947265625,41575.087272375,-0.9344148727609966,-1.041951430464735,-0.8035837858312923,-0.3867557942867279,-0.3481202721595764,0.01523638051003218,-0.05632734298706055,-0.01837539672851562,-0.01562023162841797,XArbitraryZVertical,-0.5091566331659025,-0.2562270398587613,-0.1857476775766544,0.8003779471639887,-0.5993062853813171,0.7198483347892761,-0.3502144515514374,41488.34302604167,unknown,2,2020-03-09 10:36:21.948 +0100,605439519.9571381,0,44261.14,100.3804
2020-03-09 10:38:40.173 +0100,1583746718.999715,52.5640241630907,13.41052993309227,47.25573,0,24.4297504653464,9.298409707602589,14.76348231971918,-9999,41575.107371375,-0.685760498046875,0.70855712890625,-0.4032440185546875,41575.102346375,-0.9431592696659052,-1.053465121999034,-0.8074013853395233,-0.5649504065513611,-0.3565781712532043,0.02057295478880405,-0.09321057796478271,-0.007149577140808105,-0.04354280233383179,XArbitraryZVertical,-0.5125345086520959,-0.2575724832144063,-0.1852243852876784,0.7979076394886029,-0.6009058952331543,0.7224929928779602,-0.3419295847415924,41488.34302604167,unknown,2,2020-03-09 10:36:21.948 +0100,605439519.9571381,0,44261.14,100.3804
2020-03-09 10:38:40.174 +0100,1583746718.999715,52.5640241630907,13.41052993309227,47.25573,0,24.4297504653464,9.298409707602589,14.76348231971918,-9999,41575.122445375,-0.63140869140625,0.6994476318359375,-0.3731689453125,41575.11742037501,-0.9544645080136156,-1.067335617671092,-0.8121672546845914,-0.6430193781852722,-0.3961056172847748,0.02632511593401432,-0.08320224285125732,-0.01721125841140747,-0.07133650779724121,XArbitraryZVertical,-0.5167414288012138,-0.258901087274636,-0.1848016415380277,0.7948564184977257,-0.602567732334137,0.7257797718048096,-0.3318970501422882,41488.34302604167,unknown,2,2020-03-09 10:36:21.948 +0100,605439519.9571381,0,44261.14,100.3804
2020-03-09 10:38:40.189 +0100,1583746718.999715,52.5640241630907,13.41052993309227,47.25573,0,24.4297504653464,9.298409707602589,14.76348231971918,-9999,41575.137519375,-0.5890960693359375,0.7295989990234375,-0.3512115478515625,41575.132494375,-0.9675349437280382,-1.082853796695757,-0.8176015898062341,-0.7506020665168762,-0.3973581194877625,0.03112882748246193,-0.01309007406234741,-0.01942825317382812,-0.04008466005325317,XArbitraryZVertical,-0.5215153994978352,-0.2601830723133416,-0.184396738669145,0.7914064501885145,-0.6041526198387146,0.7295075058937073,-0.3206529021263123,41488.34302604167,unknown,2,2020-03-09 10:36:21.948 +0100,605439519.9571381,0,44261.14,100.3804
2020-03-09 10:38:40.204 +0100,1583746718.999715,52.5640241630907,13.41052993309227,47.25573,0,24.4297504653464,9.298409707602589,14.76348231971918,-9999,41575.152592375,-0.5524444580078125,0.746429443359375,-0.344024658203125,41575.147568375,-0.9821583175501051,-1.099419958125868,-0.8231961376681417,-0.7569376826286316,-0.3848316669464111,0.02007484436035156,0.01663017272949219,-0.003711998462677002,-0.0424579381942749,XArbitraryZVertical,-0.5266150937266715,-0.2613526543099578,-0.1842060442721734,0.7876797034347154,-0.605735719203949,0.7333225607872009,-0.3087426722049713,41488.34302604167,unknown,2,2020-03-09 10:36:21.948 +0100,605439519.9571381,0,44261.14,100.3804
2020-03-09 10:38:40.219 +0100,1583746718.999715,52.5640241630907,13.41052993309227,47.25573,0,24.4297504653464,9.298409707602589,14.76348231971918,-9999,41575.167666375,-0.5425567626953125,0.7415313720703125,-0.31781005859375,41575.16264237501,-0.996907475633372,-1.115929746445926,-0.8285199366295027,-0.7601147294044495,-0.3689808249473572,0.0269290879368782,0.05940383672714233,0.01507890224456787,-0.03615289926528931,XArbitraryZVertical,-0.5316249391841823,-0.2624584073381944,-0.1840733531068671,0.7839689610779316,-0.6072344779968262,0.7369316816329956,-0.296981006860733,41488.34302604167,unknown,2,2020-03-09 10:36:21.948 +0100,605439519.9571381,0,44261.14,100.3804
2020-03-09 10:38:40.234 +0100,1583746718.999715,52.5640241630907,13.41052993309227,47.25573,0,24.4297504653464,9.298409707602589,14.76348231971918,-9999,41575.182740375,-0.5646820068359375,0.7208099365234375,-0.2987518310546875,41575.177716375,-1.011894022351804,-1.132223853063276,-0.8338076804903199,-0.7436928749084473,-0.3210047781467438,0.03286048024892807,0.06588995456695557,0.001047492027282715,-0.03240960836410522,XArbitraryZVertical,-0.5366146244505056,-0.2633443273674627,-0.1840179257928566,0.7802767967692065,-0.6084563732147217,0.7404957413673401,-0.2853890061378479,41488.34302604167,unknown,2,2020-03-09 10:36:21.948 +0100,605439519.9571381,0,44261.14,100.3804
2020-03-09 10:38:40.249 +0100,1583746718.999715,52.5640241630907,13.41052993309227,47.25573,0,24.4297504653464,9.298409707602589,14.76348231971918,-9999,41575.197814375,-0.5827484130859375,0.714080810546875,-0.274444580078125,41575.192790375,-1.025604885887344,-1.146944764643945,-0.8385151670157406,-0.6794690489768982,-0.293110579252243,0.04284577071666718,0.03842902183532715,-0.02879571914672852,-0.01632940769195557,XArbitraryZVertical,-0.5411066672559584,-0.264047816565529,-0.1839838820320449,0.7769376762431995,-0.6094071865081787,0.7436512112617493,-0.2749646604061127,41488.34302604167,unknown,2,2020-03-09 10:36:21.948 +0100,605439519.9571381,0,44261.14,100.3804
2020-03-09 10:38:40.264 +0100,1583746718.999715,52.5640241630907,13.41052993309227,47.25573,0,24.4297504653464,9.298409707602589,14.76348231971918,-9999,41575.212888375,-0.6083831787109375,0.727203369140625,-0.2610626220703125,41575.20786337501,-1.039682928162794,-1.161634994111712,-0.8433598232528356,-0.7162217497825623,-0.2738996148109436,0.04823494330048561,0.0273100733757019,-0.03278893232345581,-0.009886503219604492,XArbitraryZVertical,-0.5456637432578273,-0.2645332021953349,-0.1839913241386228,0.773576317550254,-0.6100680232048035,0.7468814849853516,-0.2645465433597565,41488.34302604167,unknown,2,2020-03-09 10:36:21.948 +0100,605439519.9571381,0,44261.14,100.3804
2020-03-09 10:38:40.280 +0100,1583746718.999715,52.5640241630907,13.41052993309227,47.25573,0,24.4297504653464,9.298409707602589,14.76348231971918,-9999,41575.227962375,-0.589508056640625,0.7576751708984375,-0.2446136474609375,41575.222937375,-1.05349812460286,-1.176090125736401,-0.8480104405117567,-0.6715575456619263,-0.287930428981781,0.04552777484059334,0.001200199127197266,-0.01097100973129272,-8.177757263183594e-05,XArbitraryZVertical,-0.5500911457779369,-0.2649880395842443,-0.1839526058232657,0.7702871884543727,-0.6106151938438416,0.7499658465385437,-0.2543621361255646,41488.34302604167,unknown,2,2020-03-09 10:36:21.948 +0100,605439519.9571381,0,44261.14,100.3804
2020-03-09 10:38:40.295 +0100,1583746718.999715,52.5640241630907,13.41052993309227,47.25573,0,24.4297504653464,9.298409707602589,14.76348231971918,-9999,41575.243036375,-0.55194091796875,0.764312744140625,-0.251220703125,41575.238011375,-1.068004463760202,-1.191405431771547,-0.8525140907797358,-0.7337259650230408,-0.3024563193321228,0.02348615415394306,0.02177786827087402,0.004749655723571777,-0.0008742809295654297,XArbitraryZVertical,-0.5546302517414426,-0.2655588796966237,-0.1839201583667724,0.7668356949449718,-0.6112954020500183,0.7529372572898865,-0.2437275350093842,41488.34302604167,unknown,2,2020-03-09 10:36:21.948 +0100,605439519.9571381,0,44261.14,100.3804
2020-03-09 10:38:40.310 +0100,1583746719.999707,52.5640241630907,13.41052993309227,47.25573,0,24.4297504653464,9.293201093585909,14.76676155185261,-9999,41575.25811037501,-0.5123291015625,0.7620697021484375,-0.216888427734375,41575.253085375,-1.083094736503569,-1.207440036399627,-0.8566002555438009,-0.6667687892913818,-0.3286913931369781,-0.004365716595202684,0.07570475339889526,0.008765578269958496,-0.01464039087295532,XArbitraryZVertical,-0.5591850379508778,-0.2662938892905113,-0.1839683008568924,0.7632530178616096,-0.6122438907623291,0.7556200623512268,-0.2327993214130402,41488.34302604167,unknown,2,2020-03-09 10:36:21.948 +0100,605439519.9571381,0,44261.14,100.3804
2020-03-09 10:38:40.324 +0100,1583746719.999707,52.5640241630907,13.41052993309227,47.25573,0,24.4297504653464,9.293201093585909,14.76676155185261,-9999,41575.273184375,-0.5106048583984375,0.787017822265625,-0.200103759765625,41575.268159375,-1.096871156181142,-1.222793870887988,-0.8597729769492254,-0.6175945401191711,-0.3105304837226868,-0.01422101072967052,0.1011505722999573,0.004387021064758301,0.005676865577697754,XArbitraryZVertical,-0.5632526192984814,-0.2673384617519494,-0.1839206441653723,0.7599010815786822,-0.6134891510009766,0.7576944231987,-0.2225532680749893,41488.34302604167,unknown,2,2020-03-09 10:36:21.948 +0100,605439519.9571381,0,44261.14,100.3804
2020-03-09 10:38:40.340 +0100,1583746719.999707,52.5640241630907,13.41052993309227,47.25573,0,24.4297504653464,9.293201093585909,14.76676155185261,-9999,41575.288258375,-0.584808349609375,0.7662200927734375,-0.220611572265625,41575.283233375,-1.109622617188418,-1.236591956603903,-0.8623479544283927,-0.5245112776756287,-0.2566459774971008,-0.03420237451791763,0.07920074462890625,0.0332876443862915,0.005186796188354492,XArbitraryZVertical,-0.5668807556093007,-0.2682030157101838,-0.1840526507361105,0.7568605120590465,-0.6146563291549683,0.759372353553772,-0.2134267091751099,41488.34302604167,unknown,2,2020-03-09 10:36:21.948 +0100,605439519.9571381,0,44261.14,100.3804
2020-03-09 10:38:40.355 +0100,1583746719.999707,52.5640241630907,13.41052993309227,47.25573,0,24.4297504653464,9.293201093585909,14.76676155185261,-9999,41575.30333237501,-0.627685546875,0.7083892822265625,-0.227386474609375,41575.298307375,-1.120382943812544,-1.248725285760527,-0.8642031990875543,-0.4756849706172943,-0.2759453654289246,-0.02066566050052643,0.03104543685913086,0.005653619766235352,-0.01509225368499756,XArbitraryZVertical,-0.5699048752983753,-0.2691744761814888,-0.1840862385460532,0.7542318516393901,-0.6158632040023804,0.7605781555175781,-0.2055070698261261,41488.34302604167,unknown,2,2020-03-09 10:36:21.948 +0100,605439519.9571381,0,44261.14,100.3804
2020-03-09 10:38:40.370 +0100,1583746719.999707,52.5640241630907,13.41052993309227,47.25573,0,24.4297504653464,9.293201093585909,14.76676155185261,-9999,41575.318406375,-0.6541748046875,0.68316650390625,-0.248687744140625,41575.313381375,-1.131488769768554,-1.261260455503921,-0.866493795369865,-0.5114637613296509,-0.2643393278121948,0.01360932178795338,-0.02663612365722656,-0.06214612722396851,-0.03477269411087036,XArbitraryZVertical,-0.5731167148310234,-0.270031967483594,-0.1839611465559262,0.7515171937127949,-0.616729736328125,0.7620633244514465,-0.1972399353981018,41488.34302604167,unknown,2,2020-03-09 10:36:21.948 +0100,605439519.9571381,0,44261.14,100.3804
2020-03-09 10:38:40.385 +0100,1583746719.999707,52.5640241630907,13.41052993309227,47.25573,0,24.4297504653464,9.293201093585909,14.76676155185261,-9999,41575.333480375,-0.6228790283203125,0.6687774658203125,-0.2053070068359375,41575.32845537501,-1.141291900590365,-1.272776895788793,-0.8689517946620005,-0.4162421822547913,-0.2886728942394257,0.04235095530748367,-0.03701657056808472,-0.0804741382598877,-0.05910110473632812,XArbitraryZVertical,-0.5760932307158223,-0.2707944447156495,-0.1835495850882641,0.7490636728141147,-0.6171678900718689,0.7636526226997375,-0.1895739138126373,41488.34302604167,unknown,2,2020-03-09 10:36:21.948 +0100,605439519.9571381,0,44261.14,100.3804
2020-03-09 10:38:40.400 +0100,1583746719.999707,52.5640241630907,13.41052993309227,47.25573,0,24.4297504653464,9.293201093585909,14.76676155185261,-9999,41575.348553375,-0.600830078125,0.729400634765625,-0.16619873046875,41575.343529375,-1.150785083201899,-1.284422077131173,-0.8718333485082029,-0.4755995273590088,-0.2863419353961945,0.08294865489006042,0.006904780864715576,-0.08797711133956909,-0.002408981323242188,XArbitraryZVertical,-0.5791314794970613,-0.2715341790574921,-0.1828168261825478,0.7466282768943068,-0.6172201633453369,0.7655098438262939,-0.1817518323659897,41488.34302604167,unknown,2,2020-03-09 10:36:21.948 +0100,605439519.9571381,0,44261.14,100.3804
2020-03-09 10:38:40.415 +0100,1583746719.999707,52.5640241630907,13.41052993309227,47.25573,0,24.4297504653464,9.293201093585909,14.76676155185261,-9999,41575.363627375,-0.6085662841796875,0.82696533203125,-0.1467742919921875,41575.358603375,-1.161207340930103,-1.296559777208719,-0.8752989479941909,-0.5167555212974548,-0.2667802572250366,0.104855976998806,0.0159834623336792,-0.03832238912582397,0.007341861724853516,XArbitraryZVertical,-0.5824646863860619,-0.2719763420043207,-0.1820652821103289,0.7440536841015987,-0.6168231964111328,0.7677350640296936,-0.1735275238752365,41488.34302604167,unknown,2,2020-03-09 10:36:21.948 +0100,605439519.9571381,0,44261.14,100.3804
2020-03-09 10:38:40.430 +0100,1583746719.999707,52.5640241630907,13.41052993309227,47.25573,0,24.4297504653464,9.293201093585909,14.76676155185261,-9999,41575.378701375,-0.6298065185546875,0.840728759765625,-0.1373748779296875,41575.37367737501,-1.172309147436255,-1.309055589901062,-0.8791243119076202,-0.5166811347007751,-0.2675574123859406,0.1263815760612488,0.006320714950561523,0.06921720504760742,0.0191231369972229,XArbitraryZVertical,-0.5859882533380153,-0.272204194284664,-0.1813057573397541,0.7413843264175873,-0.6161019206047058,0.7701806426048279,-0.165045291185379,41488.34302604167,unknown,2,2020-03-09 10:36:21.948 +0100,605439519.9571381,0,44261.14,100.3804
2020-03-09 10:38:40.445 +0100,1583746719.999707,52.5640241630907,13.41052993309227,47.25573,0,24.4297504653464,9.293201093585909,14.76676155185261,-9999,41575.393775375,-0.69091796875,0.8229217529296875,-0.12237548828125,41575.388751375,-1.183789735620492,-1.32203372500507,-0.8831791435356058,-0.587758481502533,-0.2860251069068909,0.1541692614555359,-0.01465582847595215,0.06798017024993896,0.01890385150909424,XArbitraryZVertical,-0.5896379655901559,-0.2723862393615697,-0.1804269889834261,0.73863309723079,-0.6151601672172546,0.7727605700492859,-0.1562656164169312,41488.34302604167,unknown,2,2020-03-09 10:36:21.948 +0100,605439519.9571381,0,44261.14,100.3804
2020-03-09 10:38:40.461 +0100,1583746719.999707,52.5640241630907,13.41052993309227,47.25573,0,24.4297504653464,9.293201093585909,14.76676155185261,-9999,41575.408849625,-0.7124176025390625,0.7764434814453125,-0.1308441162109375,41575.403825375,-1.197517575025675,-1.337069130774072,-0.8877255022456516,-0.6894894242286682,-0.3219829201698303,0.1676927953958511,-0.0857006311416626,0.02942752838134766,0.02104443311691284,XArbitraryZVertical,-0.5938627243267641,-0.2724612435633391,-0.179558300372553,0.7354254294259114,-0.6140158176422119,0.7756381630897522,-0.1461838781833649,41488.34302604167,unknown,2,2020-03-09 10:36:21.948 +0100,605439519.9571381,0,44261.14,100.3804
2020-03-09 10:38:40.476 +0100,1583746719.999707,52.5640241630907,13.41052993309227,47.25573,0,24.4297504653464,9.293201093585909,14.76676155185261,-9999,41575.423923625,-0.6832122802734375,0.74761962890625,-0.133697509765625,41575.418898625,-1.213444330071135,-1.354906463386008,-0.8925481510194936,-0.7556659579277039,-0.4145467877388,0.1710930168628693,-0.09956222772598267,-0.002217769622802734,0.003574848175048828,XArbitraryZVertical,-0.5986655750108435,-0.2727573461482978,-0.1785041463130304,0.7316686735590786,-0.61286461353302,0.7786730527877808,-0.1344059258699417,41488.34302604167,unknown,2,2020-03-09 10:36:21.948 +0100,605439519.9571381,0,44261.14,100.3804
2020-03-09 10:38:40.491 +0100,1583746719.999707,52.5640241630907,13.41052993309227,47.25573,0,24.4297504653464,9.293201093585909,14.76676155185261,-9999,41575.438997625,-0.6341094970703125,0.73358154296875,-0.1268463134765625,41575.433972625,-1.229840934210515,-1.374318751704676,-0.8971862448447767,-0.6877744793891907,-0.4663545787334442,0.1660646200180054,-0.05268943309783936,-0.0453568696975708,-0.01514112949371338,XArbitraryZVertical,-0.603596994454873,-0.2734624509163739,-0.177124940915991,0.7276782371288106,-0.6118094921112061,0.7815747261047363,-0.1217779144644737,41488.34302604167,unknown,2,2020-03-09 10:36:21.948 +0100,605439519.9571381,0,44261.14,100.3804
2020-03-09 10:38:40.506 +0100,1583746719.999707,52.5640241630907,13.41052993309227,47.25573,0,24.4297504653464,9.293201093585909,14.76676155185261,-9999,41575.454071625,-0.59906005859375,0.748809814453125,-0.124908447265625,41575.449046625,-1.244817220558475,-1.393227307014253,-0.9013687899297977,-0.6469730138778687,-0.4730409681797028,0.1489902883768082,-0.0233389139175415,-0.05058372020721436,-0.01722288131713867,XArbitraryZVertical,-0.6081604533206438,-0.2744737819523663,-0.1754467504405765,0.7238945663544761,-0.6107797026634216,0.7841770052909851,-0.1096100136637688,41488.34302604167,unknown,2,2020-03-09 10:36:21.948 +0100,605439519.9571381,0,44261.14,100.3804
2020-03-09 10:38:40.521 +0100,1583746719.999707,52.5640241630907,13.41052993309227,47.25573,0,24.4297504653464,9.293201093585909,14.76676155185261,-9999,41575.469145625,-0.611602783203125,0.771514892578125,-0.134979248046875,41575.464120625,-1.259429497727174,-1.411266813253704,-0.9053135740245083,-0.6217333078384399,-0.4081127941608429,0.1612500250339508,0.01225370168685913,-0.03172421455383301,-0.04008769989013672,XArbitraryZVertical,-0.6125178137409013,-0.2752829684227884,-0.1739041530336891,0.7202766103943764,-0.6095985770225525,0.7866188287734985,-0.09808243066072464,41488.34302604167,unknown,2,2020-03-09 10:36:21.948 +0100,605439519.9571381,0,44261.14,100.3804
2020-03-09 10:38:40.536 +0100,1583746719.999707,52.5640241630907,13.41052993309227,47.25573,0,24.4297504653464,9.293201093585909,14.76676155185261,-9999,41575.484219625,-0.5853271484375,0.79156494140625,-0.089324951171875,41575.479194625,-1.273273555538961,-1.42839721710103,-0.9092368323464042,-0.5808471441268921,-0.4214271605014801,0.1927300989627838,-0.003482222557067871,-0.01750838756561279,-0.04777830839157104,XArbitraryZVertical,-0.6166548537760667,-0.2759405322104451,-0.1723018308771514,0.7168720324917729,-0.608129620552063,0.7890351414680481,-0.08718723058700562,41488.34302604167,unknown,2,2020-03-09 10:36:21.948 +0100,605439519.9571381,0,44261.14,100.3804
2020-03-09 10:38:40.551 +0100,1583746719.999707,52.5640241630907,13.41052993309227,47.25573,0,24.4297504653464,9.293201093585909,14.76676155185261,-9999,41575.49929362501,-0.5745849609375,0.819305419921875,-0.0716705322265625,41575.494268625,-1.287031873604867,-1.445583134787277,-0.9133490066450776,-0.6231894493103027,-0.4141586422920227,0.2033567875623703,0.02549433708190918,0.009634852409362793,-0.001518964767456055,XArbitraryZVertical,-0.6207871756663431,-0.2765219893760243,-0.1705234796500886,0.7134987362414039,-0.6063137650489807,0.7915547490119934,-0.07631774246692657,41488.34302604167,unknown,2,2020-03-09 10:36:21.948 +0100,605439519.9571381,0,44261.14,100.3804
2020-03-09 10:38:40.566 +0100,1583746719.999707,52.5640241630907,13.41052993309227,47.25573,0,24.4297504653464,9.293201093585909,14.76676155185261,-9999,41575.514367625,-0.5560760498046875,0.804107666015625,-0.0711822509765625,41575.509342625,-1.302076986636041,-1.463542925460266,-0.9174270817136031,-0.6455402970314026,-0.3910234868526459,0.2052367031574249,0.02977824211120605,0.025276780128479,-0.006586194038391113,XArbitraryZVertical,-0.6251217352354149,-0.2769250644987563,-0.1689073101612778,0.7099334002364471,-0.604371964931488,0.7940402626991272,-0.06507065147161484,41488.34302604167,unknown,2,2020-03-09 10:36:21.948 +0100,605439519.9571381,0,44261.14,100.3804
2020-03-09 10:38:40.581 +0100,1583746719.999707,52.5640241630907,13.41052993309227,47.25573,0,24.4297504653464,9.293201093585909,14.76676155185261,-9999,41575.529441625,-0.55047607421875,0.7664337158203125,-0.01751708984375,41575.524416625,-1.317028024571502,-1.481224087401072,-0.9213952609703606,-0.6101915836334229,-0.3833257555961609,0.2116777300834656,0.0503658652305603,-0.004350841045379639,-0.004990696907043457,XArbitraryZVertical,-0.6293644387192301,-0.2772255836924639,-0.1673118732949182,0.7064367887047756,-0.6022849678993225,0.7964461445808411,-0.05409275740385056,41488.34302604167,unknown,2,2020-03-09 10:36:21.948 +0100,605439519.9571381,0,44261.14,100.3804
2020-03-09 10:38:40.596 +0100,1583746719.999707,52.5640241630907,13.41052993309227,47.25573,0,24.4297504653464,9.293201093585909,14.76676155185261,-9999,41575.54451462501,-0.59124755859375,0.784942626953125,0.0235595703125,41575.539490625,-1.331401021368488,-1.498289147409171,-0.9253681647250844,-0.5816870331764221,-0.3611950278282166,0.22465880215168,0.04947513341903687,-0.03239685297012329,0.02607470750808716,XArbitraryZVertical,-0.6334403693299342,-0.2774245888757491,-0.1656384704933991,0.7031022142115415,-0.5999598503112793,0.7988423109054565,-0.04357779026031494,41488.34302604167,unknown,2,2020-03-09 10:36:21.948 +0100,605439519.9571381,0,44261.14,100.3804
2020-03-09 10:38:40.611 +0100,1583746719.999707,52.5640241630907,13.41052993309227,47.25573,0,24.4297504653464,9.293201093585909,14.76676155185261,-9999,41575.559588625,-0.6285400390625,0.787933349609375,0.0201568603515625,41575.554564625,-1.343947953707985,-1.513445833471866,-0.9292665960673833,-0.4638055264949799,-0.3360798060894012,0.2312941998243332,-0.00807034969329834,-0.01369410753250122,0.06013292074203491,XArbitraryZVertical,-0.637058215638807,-0.2775001861274825,-0.1638963545346527,0.7002058739832773,-0.5974375605583191,0.8011812567710876,-0.03430095314979553,41488.34302604167,unknown,2,2020-03-09 10:36:21.948 +0100,605439519.9571381,0,44261.14,100.3804
2020-03-09 10:38:40.626 +0100,1583746719.999707,52.5640241630907,13.41052993309227,47.25573,0,24.4297504653464,9.293201093585909,14.76676155185261,-9999,41575.574662625,-0.642791748046875,0.8076324462890625,0.028778076171875,41575.56963862501,-1.354684499257591,-1.527209293412551,-0.9331885264535965,-0.4286842942237854,-0.3541940748691559,0.2493565678596497,-0.03383916616439819,-0.01557719707489014,0.04610884189605713,XArbitraryZVertical,-0.6402820419936748,-0.2776146320595209,-0.1619119293104774,0.6976771602017752,-0.5947093963623047,0.8035220503807068,-0.02593804523348808,41488.34302604167,unknown,2,2020-03-09 10:36:21.948 +0100,605439519.9571381,0,44261.14,100.3804
2020-03-09 10:38:40.653 +0100,1583746719.999707,52.5640241630907,13.41052993309227,47.25573,0,24.4297504653464,9.293201093585909,14.76676155185261,-9999,41575.589736625,-0.589569091796875,0.832366943359375,0.047088623046875,41575.584712625,-1.365184790003629,-1.541247866263204,-0.9373829383666942,-0.4219414889812469,-0.3968092501163483,0.2713091671466827,-0.03855544328689575,0.01368653774261475,0.0520775318145752,XArbitraryZVertical,-0.6435038885661265,-0.2777753800455262,-0.1596243518614854,0.6951715995597104,-0.5916408896446228,0.8060117959976196,-0.0174871664494276,41488.34302604167,unknown,2,2020-03-09 10:36:21.948 +0100,605439519.9571381,0,44261.14,100.3804
2020-03-09 10:38:40.667 +0100,1583746719.999707,52.5640241630907,13.41052993309227,47.25573,0,24.4297504653464,9.293201093585909,14.76676155185261,-9999,41575.604810625,-0.559539794921875,0.816925048828125,0.0321502685546875,41575.599786625,-1.376016001989131,-1.556046460059489,-0.9415819809949585,-0.4477784037590027,-0.395461767911911,0.2603734731674194,-0.001131713390350342,0.02388828992843628,0.05578279495239258,XArbitraryZVertical,-0.6467966247586995,-0.2780540668837442,-0.1571648944545394,0.6925598903849172,-0.5884456634521484,0.8084900975227356,-0.008680123835802078,41488.34302604167,unknown,2,2020-03-09 10:36:21.948 +0100,605439519.9571381,0,44261.14,100.3804
2020-03-09 10:38:40.671 +0100,1583746719.999707,52.5640241630907,13.41052993309227,47.25573,0,24.4297504653464,9.293201093585909,14.76676155185261,-9999,41575.619884625,-0.5573883056640625,0.8034515380859375,0.0072174072265625,41575.61485962501,-1.388012483787793,-1.571352006334959,-0.9454562392731962,-0.4900210499763489,-0.3490880727767944,0.2459298372268677,0.02802205085754395,0.0006638169288635254,0.02010488510131836,XArbitraryZVertical,-0.6502077303945363,-0.2781951602093504,-0.1550127765263848,0.6897885512572706,-0.5853726863861084,0.8107640743255615,0.0003252796595916152,41488.34302604167,unknown,2,2020-03-09 10:36:21.948 +0100,605439519.9571381,0,44261.14,100.3804
2020-03-09 10:38:40.687 +0100,1583746719.999707,52.5640241630907,13.41052993309227,47.25573,0,24.4297504653464,9.293201093585909,14.76676155185261,-9999,41575.634958625,-0.537567138671875,0.8105316162109375,0.0408477783203125,41575.629933625,-1.400092298708866,-1.586505278525606,-0.9489716092492588,-0.4163318872451782,-0.3682266175746918,0.2312925755977631,0.02505075931549072,-0.009353935718536377,-0.001918792724609375,XArbitraryZVertical,-0.6535346181338951,-0.2783301940856021,-0.1530177751560221,0.6870300259964202,-0.5824472308158875,0.812816858291626,0.009150387719273567,41488.34302604167,unknown,2,2020-03-09 10:36:21.948 +0100,605439519.9571381,0,44261.14,100.3804
2020-03-09 10:38:40.701 +0100,1583746719.999707,52.5640241630907,13.41052993309227,47.25573,0,24.4297504653464,9.293201093585909,14.76676155185261,-9999,41575.650032625,-0.5192413330078125,0.8317413330078125,0.0851898193359375,41575.645007625,-1.408778289702169,-1.599345384009544,-0.9522705401639932,-0.2396729290485382,-0.3918817043304443,0.23033307492733,0.0494539737701416,0.002537965774536133,0.04257524013519287,XArbitraryZVertical,-0.6561536351969572,-0.2788156120788551,-0.150651316737211,0.6848563901153217,-0.5795981287956238,0.814734160900116,0.01655147783458233,41488.34302604167,unknown,2,2020-03-09 10:36:21.948 +0100,605439519.9571381,0,44261.14,100.3804
2020-03-09 10:38:40.717 +0100,1583746719.999707,52.5640241630907,13.41052993309227,47.25573,0,24.4297504653464,9.293201093585909,14.76676155185261,-9999,41575.66510662501,-0.5163116455078125,0.806488037109375,0.112335205078125,41575.660081625,-1.412976907598076,-1.608524995245215,-0.9554600725463326,-0.06935497373342514,-0.3601799309253693,0.2062321603298187,0.05757296085357666,0.01517331600189209,0.0634310245513916,XArbitraryZVertical,-0.6578338226623809,-0.2795374666081872,-0.1479669483458607,0.6835343340208033,-0.5768222212791443,0.8165794014930725,0.02177306637167931,41488.34302604167,unknown,2,2020-03-09 10:36:21.948 +0100,605439519.9571381,0,44261.14,100.3804
2020-03-09 10:38:40.732 +0100,1583746719.999707,52.5640241630907,13.41052993309227,47.25573,0,24.4297504653464,9.293201093585909,14.76676155185261,-9999,41575.680180625,-0.5430145263671875,0.8065643310546875,0.1029815673828125,41575.675155625,-1.41298446168171,-1.613528386193743,-0.9582932684601939,0.08790259063243866,-0.2977050542831421,0.1766798049211502,0.05050450563430786,-0.01551157236099243,0.08399009704589844,XArbitraryZVertical,-0.6585590512921093,-0.280321131118561,-0.145339800621489,0.6830785818302662,-0.5743923783302307,0.818211555480957,0.02455992065370083,41488.34302604167,unknown,2,2020-03-09 10:36:21.948 +0100,605439519.9571381,0,44261.14,100.3804
2020-03-09 10:38:40.747 +0100,1583746719.999707,52.5640241630907,13.41052993309227,47.25573,0,24.4297504653464,9.293201093585909,14.76676155185261,-9999,41575.695254625,-0.5865325927734375,0.794769287109375,0.074005126953125,41575.690229625,-1.409630542698995,-1.614666260611513,-0.9609477887676582,0.1685612201690674,-0.2147673219442368,0.1559635996818542,0.02916967868804932,-0.01315909624099731,0.07787764072418213,XArbitraryZVertical,-0.658503321725185,-0.2809491892885147,-0.1428972324569167,0.6833894906876579,-0.5721920728683472,0.8197347521781921,0.02511814422905445,41488.34302604167,unknown,2,2020-03-09 10:36:21.948 +0100,605439519.9571381,0,44261.14,100.3804
2020-03-09 10:38:40.762 +0100,1583746719.999707,52.5640241630907,13.41052993309227,47.25573,0,24.4297504653464,9.293201093585909,14.76676155185261,-9999,41575.71032862501,-0.6169281005859375,0.76910400390625,0.041015625,41575.705303625,-1.405340957843132,-1.613740174226868,-0.963322078707306,0.1576220095157623,-0.1340743452310562,0.1395826786756516,-0.02776134014129639,-0.02950072288513184,0.035980224609375,XArbitraryZVertical,-0.6581328753119443,-0.2812710840229004,-0.1409102699601651,0.684026224405911,-0.5702689290046692,0.8210923075675964,0.02450460940599442,41488.34302604167,unknown,2,2020-03-09 10:36:21.948 +0100,605439519.9571381,0,44261.14,100.3804
2020-03-09 10:38:40.777 +0100,1583746719.999707,52.5640241630907,13.41052993309227,47.25573,0,24.4297504653464,9.293201093585909,14.76676155185261,-9999,41575.725402625,-0.626800537109375,0.8157196044921875,0.0596923828125,41575.720377625,-1.402434317845038,-1.612993971432871,-0.9654159704803428,0.05080281943082809,-0.08920291066169739,0.1416034400463104,-0.04836767911911011,-0.05317038297653198,0.01702320575714111,XArbitraryZVertical,-0.6579355040646007,-0.2812900942191493,-0.139433078207103,0.6845108583912104,-0.5685681700706482,0.8222857117652893,0.02400648966431618,41488.34302604167,unknown,2,2020-03-09 10:36:21.948 +0100,605439519.9571381,0,44261.14,100.3804
2020-03-09 10:38:40.792 +0100,1583746719.999707,52.5640241630907,13.41052993309227,47.25573,0,24.4297504653464,9.293201093585909,14.76676155185261,-9999,41575.740476625,-0.6226043701171875,0.84356689453125,0.0788116455078125,41575.73545162501,-1.402940547834108,-1.614358509200526,-0.9676851983313529,-0.03969521820545197,-0.03164071589708328,0.1360777467489243,-0.06183290481567383,0.007765531539916992,0.04222273826599121,XArbitraryZVertical,-0.6583867678496843,-0.2808511108424058,-0.1383676193747129,0.6844733152599358,-0.5666689872741699,0.823574960231781,0.02470096573233604,41488.34302604167,unknown,2,2020-03-09 10:36:21.948 +0100,605439519.9571381,0,44261.14,100.3804
2020-03-09 10:38:40.807 +0100,1583746719.999707,52.5640241630907,13.41052993309227,47.25573,0,24.4297504653464,9.293201093585909,14.76676155185261,-9999,41575.75554962501,-0.62591552734375,0.88201904296875,0.035888671875,41575.750525625,-1.406451325877827,-1.617190932631405,-0.9692381542802635,-0.2246858477592468,0.05247842520475388,0.07484448701143265,-0.05729341506958008,0.019123375415802,0.05257916450500488,XArbitraryZVertical,-0.6592686123027134,-0.2801574208053147,-0.1380951446136378,0.6839636721805068,-0.5653185844421387,0.8244547843933105,0.0262465663254261,41488.34302604167,unknown,2,2020-03-09 10:36:21.948 +0100,605439519.9571381,0,44261.14,100.3804
2020-03-09 10:38:40.822 +0100,1583746719.999707,52.5640241630907,13.41052993309227,47.25573,0,24.4297504653464,9.293201093585909,14.76676155185261,-9999,41575.770623625,-0.594970703125,0.8653564453125,0.0175933837890625,41575.765599625,-1.414079409909933,-1.622409087035516,-0.9696220959956394,-0.3054286241531372,0.07811960577964783,-0.003391731530427933,-0.05357331037521362,0.05406224727630615,-0.01119112968444824,XArbitraryZVertical,-0.6607440032616009,-0.2792977857001643,-0.1388458001199611,0.6827384509631528,-0.5648577213287354,0.8246720433235168,0.02917978167533875,41488.34302604167,unknown,2,2020-03-09 10:36:21.948 +0100,605439519.9571381,0,44261.14,100.3804
2020-03-09 10:38:40.837 +0100,1583746719.999707,52.5640241630907,13.41052993309227,47.25573,0,24.4297504653464,9.293201093585909,14.76676155185261,-9999,41575.785697625,-0.55401611328125,0.8898468017578125,0.0612945556640625,41575.78067362501,-1.421810598037883,-1.627878528451147,-0.9689986189423748,-0.2675855159759521,0.04448147118091583,-0.03323115408420563,-0.02977514266967773,0.04104828834533691,-0.01469087600708008,XArbitraryZVertical,-0.6621285213012216,-0.2788097590962019,-0.139890602085418,0.6813820283478378,-0.5652030110359192,0.8243192434310913,0.03229812160134315,41488.34302604167,unknown,2,2020-03-09 10:36:21.948 +0100,605439519.9571381,0,44261.14,100.3804
2020-03-09 10:38:40.853 +0100,1583746719.999707,52.5640241630907,13.41052993309227,47.25573,0,24.4297504653464,9.293201093585909,14.76676155185261,-9999,41575.800771625,-0.511444091796875,0.848663330078125,0.074737548828125,41575.795747625,-1.427747141697906,-1.6323145455054,-0.9677246807453832,-0.1654955595731735,0.02937934920191765,-0.09532731771469116,0.02501779794692993,0.05885994434356689,0.03986656665802002,XArbitraryZVertical,-0.6631158518288264,-0.2787690056299565,-0.1408851615101593,0.6802327018491199,-0.5661019682884216,0.8235973715782166,0.03486958146095276,41488.34302604167,unknown,2,2020-03-09 10:36:21.948 +0100,605439519.9571381,0,44261.14,100.3804
2020-03-09 10:38:40.867 +0100,1583746719.999707,52.5640241630907,13.41052993309227,47.25573,0,24.4297504653464,9.293201093585909,14.76676155185261,-9999,41575.815845625,-0.507415771484375,0.8391876220703125,0.0561065673828125,41575.810821625,-1.430621825578295,-1.634015934441362,-0.9657346674727578,-0.07435686886310577,0.06888041645288467,-0.1435571610927582,0.05622464418411255,0.0262070894241333,0.03881490230560303,XArbitraryZVertical,-0.6634022801325539,-0.2790438841970115,-0.1419906345530976,0.6796104640876555,-0.5676761269569397,0.822467029094696,0.0359361506998539,41488.34302604167,unknown,2,2020-03-09 10:36:21.948 +0100,605439519.9571381,0,44261.14,100.3804
2020-03-09 10:38:40.883 +0100,1583746719.999707,52.5640241630907,13.41052993309227,47.25573,0,24.4297504653464,9.293201093585909,14.76676155185261,-9999,41575.830919625,-0.5055389404296875,0.821868896484375,0.06451416015625,41575.825894625,-1.430768822200619,-1.632885917395902,-0.96319890543911,0.05752973631024361,0.09001569449901581,-0.1837359070777893,0.06132030487060547,0.01221013069152832,0.01805639266967773,XArbitraryZVertical,-0.6630427867075662,-0.2794391488928604,-0.1432974520236454,0.6795246582238307,-0.5697962641716003,0.8210220336914062,0.03542394936084747,41488.34302604167,unknown,2,2020-03-09 10:36:21.948 +0100,605439519.9571381,0,44261.14,100.3804
2020-03-09 10:38:40.898 +0100,1583746719.999707,52.5640241630907,13.41052993309227,47.25573,0,24.4297504653464,9.293201093585909,14.76676155185261,-9999,41575.845993625,-0.5071868896484375,0.8319549560546875,0.0793914794921875,41575.840968625,-1.427173798718518,-1.628647547828303,-0.9601431040384154,0.193917527794838,0.07939921319484711,-0.2368786782026291,0.06689667701721191,0.002606034278869629,0.03137409687042236,XArbitraryZVertical,-0.6618703493701634,-0.2801863713187799,-0.1445417165328807,0.6800960882403864,-0.5724430680274963,0.8192736506462097,0.03315352275967598,41488.34302604167,unknown,2,2020-03-09 10:36:21.948 +0100,605439519.9571381,0,44261.14,100.3804
2020-03-09 10:38:40.913 +0100,1583746719.999707,52.5640241630907,13.41052993309227,47.25573,0,24.4297504653464,9.293201093585909,14.76676155185261,-9999,41575.861067625,-0.5237884521484375,0.856903076171875,0.0733184814453125,41575.856042625,-1.420220384785539,-1.621763501841142,-0.9563756510770315,0.3029063642024994,0.07631963491439819,-0.2871403694152832,0.06291145086288452,0.0231131911277771,0.04849493503570557,XArbitraryZVertical,-0.6599361297980718,-0.2813695973270164,-0.1457591982362673,0.6812265074852878,-0.575736403465271,0.8171075582504272,0.02936909161508083,41488.34302604167,unknown,2,2020-03-09 10:36:21.948 +0100,605439519.9571381,0,44261.14,100.3804
2020-03-09 10:38:40.928 +0100,1583746719.999707,52.5640241630907,13.41052993309227,47.25573,0,24.4297504653464,9.293201093585909,14.76676155185261,-9999,41575.87614162501,-0.52203369140625,0.8748931884765625,0.077728271484375,41575.871116625,-1.410912434506223,-1.613072813606452,-0.9520234712306427,0.380375862121582,0.0697549432516098,-0.3262587487697601,0.05572152137756348,0.04232287406921387,0.04881739616394043,XArbitraryZVertical,-0.6574429894725641,-0.2828886734950207,-0.1469585844203076,0.6827487022682945,-0.5795175433158875,0.8145908713340759,0.02451457269489765,41488.34302604167,unknown,2,2020-03-09 10:36:21.948 +0100,605439519.9571381,0,44261.14,100.3804
2020-03-09 10:38:40.943 +0100,1583746719.999707,52.5640241630907,13.41052993309227,47.25573,0,24.4297504653464,9.293201093585909,14.76676155185261,-9999,41575.891215625,-0.5112457275390625,0.8513641357421875,0.0491790771484375,41575.886190625,-1.400136833266246,-1.603816638393581,-0.9471488559707038,0.4155884087085724,0.002541505731642246,-0.3743862211704254,0.06597363948822021,0.06359243392944336,0.05202186107635498,XArbitraryZVertical,-0.6546023348418344,-0.2848437403904993,-0.1480026314877794,0.6844376633123778,-0.5836812853813171,0.8117537498474121,0.01928034611046314,41488.34302604167,unknown,2,2020-03-09 10:36:21.948 +0100,605439519.9571381,0,44261.14,100.3804
2020-03-09 10:38:40.958 +0100,1583746719.999707,52.5640241630907,13.41052993309227,47.25573,0,24.4297504653464,9.293201093585909,14.76676155185261,-9999,41575.906289625,-0.5212249755859375,0.8114471435546875,-0.0001678466796875,41575.901264625,-1.389918824662941,-1.595917311267332,-0.9412213640876331,0.3528048694133759,-0.05024910718202591,-0.450513631105423,0.0773618221282959,0.04309684038162231,0.03440272808074951,XArbitraryZVertical,-0.6517651185634817,-0.2873970816625817,-0.1491364811383857,0.6858303683675037,-0.5886151790618896,0.8082778453826904,0.01478970423340797,41488.34302604167,unknown,2,2020-03-09 10:36:21.948 +0100,605439519.9571381,0,44261.14,100.3804
2020-03-09 10:38:40.973 +0100,1583746719.999707,52.5640241630907,13.41052993309227,47.25573,0,24.4297504653464,9.293201093585909,14.76676155185261,-9999,41575.92136362501,-0.5721893310546875,0.8251495361328125,-0.0138397216796875,41575.916338625,-1.381938833679457,-1.590666877729623,-0.933811213523049,0.2754608690738678,-0.1062593162059784,-0.5765011310577393,0.05996578931808472,0.002529680728912354,-0.01900649070739746,XArbitraryZVertical,-0.6492052208918672,-0.2905880891368395,-0.1506720609146851,0.6865776570146475,-0.594656765460968,0.8038926124572754,0.01181771233677864,41488.34302604167,unknown,2,2020-03-09 10:36:21.948 +0100,605439519.9571381,0,44261.14,100.3804
2020-03-09 10:38:40.988 +0100,1583746719.999707,52.5640241630907,13.41052993309227,47.25573,0,24.4297504653464,9.293201093585909,14.76676155185261,-9999,41575.936437625,-0.57061767578125,0.912017822265625,0.0576629638671875,41575.931412625,-1.374148260187467,-1.587175215486254,-0.9247768478714791,0.3750921189785004,-0.2738565802574158,-0.6315348148345947,0.02973443269729614,0.02667349576950073,-0.02368640899658203,XArbitraryZVertical,-0.6465348417228834,-0.2948264313776705,-0.1522536454577532,0.6869415097470027,-0.6019315719604492,0.7984864711761475,0.009859852492809296,41488.34302604167,unknown,2,2020-03-09 10:36:21.948 +0100,605439519.9571381,0,44261.14,100.3804
2020-03-09 10:38:41.003 +0100,1583746719.999707,52.5640241630907,13.41052993309227,47.25573,0,24.4297504653464,9.293201093585909,14.76676155185261,-9999,41575.951511625,-0.6303863525390625,0.7770538330078125,0.1984405517578125,41575.94648662501,-1.362299241869313,-1.584128612537669,-0.9148378567071418,0.4916184842586517,-0.5277609825134277,-0.7540913820266724,0.03714859485626221,0.1029781103134155,0.1035761833190918,XArbitraryZVertical,-0.6431091395061227,-0.3007928198274792,-0.1526012800024916,0.687493294160428,-0.6098646521568298,0.7924637198448181,0.008131371811032295,41488.34302604167,unknown,2,2020-03-09 10:36:21.948 +0100,605439519.9571381,0,44261.14,100.3804
2020-03-09 10:38:41.018 +0100,1583746719.999707,52.5640241630907,13.41052993309227,47.25573,0,24.4297504653464,9.293201093585909,14.76676155185261,-9999,41575.966585625,-0.6287841796875,0.51751708984375,0.2374267578125,41575.961560625,-1.354152473106522,-1.586319699478065,-0.9023750143005244,0.08867146074771881,-0.5704553127288818,-0.9200869798660278,-0.01072162389755249,-0.007736921310424805,0.1888337135314941,XArbitraryZVertical,-0.6402012363376375,-0.3081435855028221,-0.1534080757132043,0.686771916883851,-0.6196727752685547,0.7848010063171387,0.009620185010135174,41488.34302604167,unknown,2,2020-03-09 10:36:21.948 +0100,605439519.9571381,0,44261.14,100.3804
2020-03-09 10:38:41.033 +0100,1583746719.999707,52.5640241630907,13.41052993309227,47.25573,0,24.4297504653464,9.293201093585909,14.76676155185261,-9999,41575.981658625,-0.6273956298828125,0.7020263671875,-0.08038330078125,41575.976634625,-1.359050861447793,-1.596215125681689,-0.8880129030131699,-0.4720004200935364,-0.2092320322990417,-0.9535495638847351,-0.001734018325805664,-0.2608098983764648,0.150435209274292,XArbitraryZVertical,-0.6395967730620942,-0.314538012282937,-0.1568856928890102,0.6836436457152515,-0.6307510137557983,0.7758195400238037,0.0160363856703043,41488.34302604167,unknown,2,2020-03-09 10:36:21.948 +0100,605439519.9571381,0,44261.14,100.3804
2020-03-09 10:38:41.048 +0100,1583746719.999707,52.5640241630907,13.41052993309227,47.25573,0,24.4297504653464,9.293201093585909,14.76676155185261,-9999,41575.996732625,-0.5905609130859375,1.168838500976562,-0.3316192626953125,41575.99170862501,-1.370183043876054,-1.605640827277232,-0.8745857000139204,-0.4186493158340454,0.1046798303723335,-0.7777223587036133,0.01352137327194214,-0.06524133682250977,-0.10271155834198,XArbitraryZVertical,-0.6401246258560664,-0.3184514828845271,-0.1623051538235374,0.6800632799022251,-0.6409253478050232,0.7672778964042664,0.02234176732599735,41488.34302604167,unknown,2,2020-03-09 10:36:21.948 +0100,605439519.9571381,0,44261.14,100.3804
2020-03-09 10:38:41.063 +0100,1583746719.999707,52.5640241630907,13.41052993309227,47.25573,0,24.4297504653464,9.293201093585909,14.76676155185261,-9999,41576.011806625,-0.447418212890625,1.26885986328125,0.036407470703125,41576.006782625,-1.368559105537674,-1.60357547916816,-0.8646957082724211,0.6076629161834717,-0.02093349024653435,-0.5737822651863098,0.1224676370620728,0.536963939666748,-0.327465295791626,XArbitraryZVertical,-0.6382279416002277,-0.3213999379001273,-0.1658265632377453,0.6796091884157877,-0.6485229730606079,0.7608978748321533,0.02126565016806126,41488.34302604167,unknown,2,2020-03-09 10:36:21.948 +0100,605439519.9571381,0,44261.14,100.3804
2020-03-09 10:38:41.079 +0100,1583746719.999707,52.5640241630907,13.41052993309227,47.25573,0,24.4297504653464,9.293201093585909,14.76676155185261,-9999,41576.026880625,-0.55023193359375,0.84698486328125,0.1280059814453125,41576.021856625,-1.352823720339739,-1.589767319965995,-0.8551453037363778,0.5703407526016235,0.3020073473453522,-0.7415684461593628,0.2085638046264648,0.514203667640686,0.02397465705871582,XArbitraryZVertical,-0.633075201567833,-0.3247136170345807,-0.1681481995856405,0.6822777745843767,-0.6559906601905823,0.754666268825531,0.01244628801941872,41488.34302604167,unknown,2,2020-03-09 10:36:21.948 +0100,605439519.9571381,0,44261.14,100.3804
2020-03-09 10:38:41.094 +0100,1583746719.999707,52.5640241630907,13.41052993309227,47.25573,0,24.4297504653464,9.293201093585909,14.76676155185261,-9999,41576.04195462501,-0.471160888671875,0.5259246826171875,0.103271484375,41576.036929625,-1.341666698786735,-1.575269261910449,-0.8434093051176818,0.4070825278759003,0.4761132895946503,-0.8446288704872131,0.1692535281181335,-0.05209571123123169,0.09597694873809814,XArbitraryZVertical,-0.6281562670767322,-0.3269660090402452,-0.17293949811482,0.6845470565604401,-0.6649132966995239,0.7469143867492676,0.002974133938550949,41488.34302604167,unknown,2,2020-03-09 10:36:21.948 +0100,605439519.9571381,0,44261.14,100.3804
2020-03-09 10:38:41.109 +0100,1583746719.999707,52.5640241630907,13.41052993309227,47.25573,0,24.4297504653464,9.293201093585909,14.76676155185261,-9999,41576.057028625,-0.573516845703125,0.625,0.04052734375,41576.052003625,-1.336584043570687,-1.56311460312674,-0.8299621086258204,0.0238464567810297,0.6555293798446655,-0.9012516736984253,0.2037138938903809,-0.2119714617729187,0.1084689497947693,XArbitraryZVertical,-0.6240406585507315,-0.328604733837621,-0.1796065701496909,0.6858086290059773,-0.6748835444450378,0.7379058003425598,-0.005184370558708906,41488.34302604167,unknown,2,2020-03-09 10:36:21.948 +0100,605439519.9571381,0,44261.14,100.3804
2020-03-09 10:38:41.124 +0100,1583746719.999707,52.5640241630907,13.41052993309227,47.25573,0,24.4297504653464,9.293201093585909,14.76676155185261,-9999,41576.072102625,-0.648284912109375,0.7564697265625,0.03790283203125,41576.067077625,-1.337610128052549,-1.553161858911809,-0.8166530935931977,-0.02621937356889248,0.7380316853523254,-0.8774154186248779,0.08887624740600586,-0.04192876815795898,0.02787876129150391,XArbitraryZVertical,-0.6210499566150096,-0.329029512144051,-0.1875934585198517,0.6861814960246074,-0.6845577359199524,0.7288584113121033,-0.01207306329160929,41488.34302604167,unknown,2,2020-03-09 10:36:21.948 +0100,605439519.9571381,0,44261.14,100.3804
2020-03-09 10:38:41.139 +0100,1583746719.999707,52.5640241630907,13.41052993309227,47.25573,0,24.4297504653464,9.293201093585909,14.76676155185261,-9999,41576.08717662501,-0.720794677734375,0.74749755859375,0.070526123046875,41576.082151625,-1.337890925755193,-1.542129035323859,-0.8036289387737027,0.000311397947371006,0.7591784596443176,-0.8467121720314026,0.04551947116851807,0.03659951686859131,0.05781090259552002,XArbitraryZVertical,-0.6177932432761741,-0.3292171137561954,-0.1955265607671243,0.6868163880700253,-0.6938133835792542,0.719879686832428,-0.01989520154893398,41488.34302604167,unknown,2,2020-03-09 10:36:21.948 +0100,605439519.9571381,0,44261.14,100.3804
2020-03-09 10:38:41.172 +0100,1583746719.999707,52.5640241630907,13.41052993309227,47.25573,0,24.4297504653464,9.293201093585909,14.76676155185261,-9999,41576.102250625,-0.7904205322265625,0.675628662109375,0.038177490234375,41576.097225625,-1.338649829263058,-1.531079531930849,-0.7908889465420973,0.01387910079210997,0.7711106538772583,-0.8553489446640015,-0.04242181777954102,0.01586782932281494,0.08263754844665527,XArbitraryZVertical,-0.6145705758075551,-0.3291534430283151,-0.2034942893268158,0.6874233796108152,-0.7026587724685669,0.7109786868095398,-0.02792203612625599,41488.34302604167,unknown,2,2020-03-09 10:36:21.948 +0100,605439519.9571381,0,44261.14,100.3804
2020-03-09 10:38:41.174 +0100,1583746719.999707,52.5640241630907,13.41052993309227,47.25573,0,24.4297504653464,9.293201093585909,14.76676155185261,-9999,41576.117324625,-0.8216094970703125,0.6922607421875,-0.00323486328125,41576.11229962501,-1.338451750392719,-1.519448093494216,-0.7779031525682454,0.09506396949291229,0.7426396012306213,-0.8598289489746094,-0.07898241281509399,-0.02614927291870117,0.07475394010543823,XArbitraryZVertical,-0.610993097404852,-0.3292500255790383,-0.211353921066036,0.6881941615991284,-0.7114474773406982,0.7017871737480164,-0.03656370937824249,41488.34302604167,unknown,2,2020-03-09 10:36:21.948 +0100,605439519.9571381,0,44261.14,100.3804
2020-03-09 10:38:41.184 +0100,1583746719.999707,52.5640241630907,13.41052993309227,47.25573,0,24.4297504653464,9.293201093585909,14.76676155185261,-9999,41576.132398625,-0.8559417724609375,0.7135467529296875,-0.05096435546875,41576.127373625,-1.335452708941577,-1.506699001401025,-0.7647507758771831,0.3293765783309937,0.6769353151321411,-0.8754454851150513,-0.1110064387321472,0.01323366165161133,0.02630281448364258,XArbitraryZVertical,-0.6067036101046409,-0.3298510228561403,-0.2185993878035276,0.6894368523318238,-0.7200729846954346,0.6923571825027466,-0.04621806368231773,41488.34302604167,unknown,2,2020-03-09 10:36:21.948 +0100,605439519.9571381,0,44261.14,100.3804
2020-03-09 10:38:41.199 +0100,1583746719.999707,52.5640241630907,13.41052993309227,47.25573,0,24.4297504653464,9.293201093585909,14.76676155185261,-9999,41576.147472625,-0.8867034912109375,0.6911468505859375,-0.1042938232421875,41576.142447625,-1.325415101117524,-1.489939960702283,-0.7506528977815059,0.7451465129852295,0.6298727989196777,-0.9147656559944153,-0.127096951007843,0.03143954277038574,0.008109569549560547,XArbitraryZVertical,-0.6005087375433917,-0.3314492590169846,-0.2248781186711063,0.6920696172975892,-0.7288544774055481,0.6821163296699524,-0.05906128883361816,41488.34302604167,unknown,2,2020-03-09 10:36:21.948 +0100,605439519.9571381,0,44261.14,100.3804
2020-03-09 10:38:41.214 +0100,1583746719.999707,52.5640241630907,13.41052993309227,47.25573,0,24.4297504653464,9.293201093585909,14.76676155185261,-9999,41576.162546625,-0.90106201171875,0.6253814697265625,-0.177398681640625,41576.15752162501,-1.31093706398422,-1.471212448319345,-0.7358438352968381,0.7790036201477051,0.5514458417892456,-0.908718466758728,-0.1507997512817383,-0.001892447471618652,-0.05249714851379395,XArbitraryZVertical,-0.5930534207678873,-0.3338257368718217,-0.2303382660632146,0.6955516600153848,-0.7375918626785278,0.671212911605835,-0.07369603216648102,41488.34302604167,unknown,2,2020-03-09 10:36:21.948 +0100,605439519.9571381,0,44261.14,100.3804
2020-03-09 10:38:41.229 +0100,1583746719.999707,52.5640241630907,13.41052993309227,47.25573,0,24.4297504653464,9.293201093585909,14.76676155185261,-9999,41576.177620625,-0.8795928955078125,0.6196441650390625,-0.2374267578125,41576.172595625,-1.298811384508641,-1.455339895881312,-0.7214239507957662,0.6419467329978943,0.4737384915351868,-0.8601402640342712,-0.1552050113677979,-0.03506433963775635,-0.09088683128356934,XArbitraryZVertical,-0.5862322545957881,-0.336276428793051,-0.2355291100700115,0.6984094674788789,-0.7458668351173401,0.6604545116424561,-0.08649981766939163,41488.34302604167,unknown,2,2020-03-09 10:36:21.948 +0100,605439519.9571381,0,44261.14,100.3804
2020-03-09 10:38:41.244 +0100,1583746719.999707,52.5640241630907,13.41052993309227,47.25573,0,24.4297504653464,9.293201093585909,14.76676155185261,-9999,41576.192693625,-0.797027587890625,0.5953521728515625,-0.2360382080078125,41576.187669625,-1.288150723915093,-1.442012565847348,-0.7078570805939999,0.6174127459526062,0.3676624894142151,-0.7892412543296814,-0.09978574514389038,-0.03490310907363892,-0.1416869759559631,XArbitraryZVertical,-0.579997163970138,-0.3388454466222743,-0.2401171385641057,0.70080718998106,-0.7534651756286621,0.6502071619033813,-0.09757410734891891,41488.34302604167,unknown,2,2020-03-09 10:36:21.948 +0100,605439519.9571381,0,44261.14,100.3804
2020-03-09 10:38:41.259 +0100,1583746719.999707,52.5640241630907,13.41052993309227,47.25573,0,24.4297504653464,9.293201093585909,14.76676155185261,-9999,41576.207767625,-0.7818603515625,0.5445404052734375,-0.2278594970703125,41576.202743625,-1.279483753601506,-1.431464691484586,-0.6953573951028938,0.4790151119232178,0.2935689389705658,-0.7497135996818542,-0.03665387630462646,-0.04529911279678345,-0.129389762878418,XArbitraryZVertical,-0.5745531417247309,-0.34142415413702,-0.2441829452543506,0.702632837330821,-0.7603837847709656,0.6406598687171936,-0.1066364720463753,41488.34302604167,unknown,2,2020-03-09 10:36:21.948 +0100,605439519.9571381,0,44261.14,100.3804
2020-03-09 10:38:41.274 +0100,1583746719.999707,52.5640241630907,13.41052993309227,47.25573,0,24.4297504653464,9.293201093585909,14.76676155185261,-9999,41576.222841625,-0.748565673828125,0.571075439453125,-0.2273406982421875,41576.217817625,-1.27402716384831,-1.42405403512441,-0.6832605309511071,0.2893615961074829,0.2360114753246307,-0.7542823553085327,-0.008598804473876953,-0.09252870082855225,-0.1138744354248047,XArbitraryZVertical,-0.5700477099793223,-0.3440188028723612,-0.2482989715082123,0.7035937456631022,-0.7671834826469421,0.6313250064849854,-0.1133933439850807,41488.34302604167,unknown,2,2020-03-09 10:36:21.948 +0100,605439519.9571381,0,44261.14,100.3804
2020-03-09 10:38:41.290 +0100,1583746719.999707,52.5640241630907,13.41052993309227,47.25573,0,24.4297504653464,9.293201093585909,14.76676155185261,-9999,41576.237915625,-0.7110443115234375,0.6244049072265625,-0.1917724609375,41576.232891625,-1.272151909316436,-1.419939640477722,-0.6712344539859978,0.1538152545690536,0.14431032538414,-0.7978702783584595,0.02558505535125732,-0.05086928606033325,-0.1096473932266235,XArbitraryZVertical,-0.5665276226853554,-0.3467069800399533,-0.2526843857002914,0.7035561498112038,-0.7741610407829285,0.6219531297683716,-0.1176814436912537,41488.34302604167,unknown,2,2020-03-09 10:36:21.948 +0100,605439519.9571381,0,44261.14,100.3804
2020-03-09 10:38:41.305 +0100,1583746720.9997,52.56401952762759,13.41053266171633,47.38559,0,24.42975262383252,9.271523011901484,14.78038207675567,-9999,41576.25298962501,-0.709136962890625,0.661712646484375,-0.2195281982421875,41576.247964625,-1.273372432340887,-1.419276165788358,-0.6589446664807819,-0.0223334226757288,0.05825742334127426,-0.8397039175033569,0.08019942045211792,0.02412372827529907,-0.07242071628570557,XArbitraryZVertical,-0.5638893653413513,-0.3497983239622213,-0.257249323450704,0.70249025649809,-0.7815801501274109,0.6122828125953674,-0.11933983117342,41488.34302604167,unknown,2,2020-03-09 10:36:21.948 +0100,605439519.9571381,0,44261.14,100.3804
2020-03-09 10:38:41.320 +0100,1583746720.9997,52.56401952762759,13.41053266171633,47.38559,0,24.42975262383252,9.271523011901484,14.78038207675567,-9999,41576.268063625,-0.727508544921875,0.660430908203125,-0.2176971435546875,41576.263038625,-1.276015222372071,-1.420532249800197,-0.6460773444203507,0.02902974747121334,-0.01084713730961084,-0.893229067325592,0.08030664920806885,0.0596616268157959,-0.09998881816864014,XArbitraryZVertical,-0.5616022476737734,-0.3533258138678179,-0.2619459980438725,0.7008194538777469,-0.7894541025161743,0.602059006690979,-0.1195275709033012,41488.34302604167,unknown,2,2020-03-09 10:36:21.948 +0100,605439519.9571381,0,44261.14,100.3804
2020-03-09 10:38:41.335 +0100,1583746720.9997,52.56401952762759,13.41053266171633,47.38559,0,24.42975262383252,9.271523011901484,14.78038207675567,-9999,41576.283137625,-0.72589111328125,0.588226318359375,-0.1734771728515625,41576.278112625,-1.276775694537915,-1.421636164119792,-0.631836262560339,0.1700186282396317,-0.08202949911355972,-0.9832426905632019,0.06294214725494385,0.04126226902008057,-0.08195900917053223,XArbitraryZVertical,-0.558636538105013,-0.3577235918640402,-0.2664543713078238,0.6992574695413422,-0.7979840636253357,0.5906274914741516,-0.1199181005358696,41488.34302604167,unknown,2,2020-03-09 10:36:21.948 +0100,605439519.9571381,0,44261.14,100.3804
2020-03-09 10:38:41.350 +0100,1583746720.9997,52.56401952762759,13.41053266171633,47.38559,0,24.42975262383252,9.271523011901484,14.78038207675567,-9999,41576.29821162501,-0.744476318359375,0.5721893310546875,-0.183685302734375,41576.293186625,-1.273013934432163,-1.420801561163172,-0.6162261658006365,0.6240561604499817,-0.0741015300154686,-0.994065523147583,0.08100020885467529,0.01027464866638184,-0.05151808261871338,XArbitraryZVertical,-0.5542522008763185,-0.3630853576515195,-0.270346719599382,0.6984883934655814,-0.8069023489952087,0.5779595971107483,-0.1219470426440239,41488.34302604167,unknown,2,2020-03-09 10:36:21.948 +0100,605439519.9571381,0,44261.14,100.3804
2020-03-09 10:38:41.365 +0100,1583746720.9997,52.56401952762759,13.41053266171633,47.38559,0,24.42975262383252,9.271523011901484,14.78038207675567,-9999,41576.313285625,-0.72943115234375,0.415252685546875,-0.2008514404296875,41576.308260625,-1.26133203250734,-1.415646068228045,-0.5996435867636979,0.8189883828163147,-0.1591102182865143,-0.9815841913223267,0.07140791416168213,-0.03083223104476929,-0.08056414127349854,XArbitraryZVertical,-0.5475307686079838,-0.369358306133369,-0.2729507300994766,0.6994871882748738,-0.8156206607818604,0.5643482804298401,-0.1275690048933029,41488.34302604167,unknown,2,2020-03-09 10:36:21.948 +0100,605439519.9571381,0,44261.14,100.3804
2020-03-09 10:38:41.380 +0100,1583746720.9997,52.56401952762759,13.41053266171633,47.38559,0,24.42975262383252,9.271523011901484,14.78038207675567,-9999,41576.328359625,-0.7606048583984375,0.4536895751953125,-0.173248291015625,41576.32333462501,-1.252081004722475,-1.413440320715301,-0.58375237422449,0.5053551197052002,-0.237062007188797,-0.9370103478431702,0.09464883804321289,-0.1358985900878906,-0.0700829029083252,XArbitraryZVertical,-0.5417161927887433,-0.3757195974236141,-0.275345669530123,0.6996877058979855,-0.8240911960601807,0.5511587858200073,-0.1307567059993744,41488.34302604167,unknown,2,2020-03-09 10:36:21.948 +0100,605439519.9571381,0,44261.14,100.3804
2020-03-09 10:38:41.395 +0100,1583746720.9997,52.56401952762759,13.41053266171633,47.38559,0,24.42975262383252,9.271523011901484,14.78038207675567,-9999,41576.343433625,-0.7183380126953125,0.5897369384765625,-0.199615478515625,41576.338408625,-1.247274645402934,-1.414536731782083,-0.5699320190550697,0.347781240940094,-0.2525641024112701,-0.810093104839325,0.08311790227890015,-0.02441543340682983,-0.04535353183746338,XArbitraryZVertical,-0.5376196396620104,-0.3813818012014915,-0.2777336547761919,0.6988397389660929,-0.83167964220047,0.5395748019218445,-0.1310260891914368,41488.34302604167,unknown,2,2020-03-09 10:36:21.948 +0100,605439519.9571381,0,44261.14,100.3804
2020-03-09 10:38:41.410 +0100,1583746720.9997,52.56401952762759,13.41053266171633,47.38559,0,24.42975262383252,9.271523011901484,14.78038207675567,-9999,41576.358507625,-0.71783447265625,0.5032958984375,-0.2101593017578125,41576.353482625,-1.24370751166093,-1.416480442558393,-0.5572818279513142,0.338741660118103,-0.2476005256175995,-0.7995688319206238,0.1202611923217773,0.0608629584312439,-0.06915557384490967,XArbitraryZVertical,-0.5341229372869524,-0.386637639904861,-0.2799553614425318,0.6977455578982317,-0.8386105298995972,0.5288812518119812,-0.130448043346405,41488.34302604167,unknown,2,2020-03-09 10:36:21.948 +0100,605439519.9571381,0,44261.14,100.3804
2020-03-09 10:38:41.425 +0100,1583746720.9997,52.56401952762759,13.41053266171633,47.38559,0,24.42975262383252,9.271523011901484,14.78038207675567,-9999,41576.373581625,-0.8044281005859375,0.372772216796875,-0.166290283203125,41576.36855662501,-1.24040794734847,-1.4183207129498,-0.5448881349916743,0.2199542671442032,-0.2523100972175598,-0.7821111679077148,0.08899593353271484,-0.05824756622314453,-0.06911826133728027,XArbitraryZVertical,-0.530696113880621,-0.391684214137095,-0.2822164653672379,0.6966339850697365,-0.8452634215354919,0.5183224081993103,-0.1298902183771133,41488.34302604167,unknown,2,2020-03-09 10:36:21.948 +0100,605439519.9571381,0,44261.14,100.3804
2020-03-09 10:38:41.440 +0100,1583746720.9997,52.56401952762759,13.41053266171633,47.38559,0,24.42975262383252,9.271523011901484,14.78038207675567,-9999,41576.388655625,-0.960235595703125,0.306854248046875,-0.1628265380859375,41576.383630625,-1.239542277808866,-1.421716458789905,-0.5335246106356041,0.09706271439790726,-0.244710773229599,-0.671745777130127,0.04702979326248169,-0.1357920169830322,-0.03839248418807983,XArbitraryZVertical,-0.5281997203795913,-0.3963106868874464,-0.2845886024093942,0.6949476064410151,-0.8514695763587952,0.5085712671279907,-0.1278857886791229,41488.34302604167,unknown,2,2020-03-09 10:36:21.948 +0100,605439519.9571381,0,44261.14,100.3804
2020-03-09 10:38:41.455 +0100,1583746720.9997,52.56401952762759,13.41053266171633,47.38559,0,24.42975262383252,9.271523011901484,14.78038207675567,-9999,41576.403728625,-1.070404052734375,0.267242431640625,-0.1839447021484375,41576.398704625,-1.242558088630318,-1.426932516136336,-0.5243493090882456,-0.2285511195659637,-0.2676979005336761,-0.5893701910972595,-0.157724142074585,-0.2108479738235474,-0.0525476336479187,XArbitraryZVertical,-0.5272742412921566,-0.3999107443546291,-0.2871403615179364,0.692534182791297,-0.8567071557044983,0.5006498694419861,-0.1241065412759781,41488.34302604167,unknown,2,2020-03-09 10:36:21.948 +0100,605439519.9571381,0,44261.14,100.3804
2020-03-09 10:38:41.471 +0100,1583746720.9997,52.56401952762759,13.41053266171633,47.38559,0,24.42975262383252,9.271523011901484,14.78038207675567,-9999,41576.41880204167,-1.09674072265625,0.4654541015625,-0.1364898681640625,41576.41377804167,-1.249124316080697,-1.435620651671167,-0.5173268978771013,-0.3918801248073578,-0.4523287415504456,-0.4207856953144073,-0.2092002034187317,-0.2273094058036804,-0.06680303812026978,XArbitraryZVertical,-0.5281111491536695,-0.4031547817697358,-0.2893220360794461,0.6890989916551046,-0.8612154722213745,0.4945586025714874,-0.1171296685934067,41488.34302604167,unknown,2,2020-03-09 10:36:21.948 +0100,605439519.9571381,0,44261.14,100.3804
2020-03-09 10:38:41.485 +0100,1583746720.9997,52.56401952762759,13.41053266171633,47.38559,0,24.42975262383252,9.271523011901484,14.78038207675567,-9999,41576.43387604167,-1.072021484375,0.509857177734375,-0.1701812744140625,41576.42885204167,-1.258122861490685,-1.447861963194783,-0.5130547332935054,-0.568372368812561,-0.5653336644172668,-0.3044550716876984,-0.2312698364257812,0.03313717246055603,-0.02956461906433105,XArbitraryZVertical,-0.5306603103748061,-0.4061787832029824,-0.2905167448292078,0.6848490723486018,-0.8646737337112427,0.4908409714698792,-0.1068368628621101,41488.34302604167,unknown,2,2020-03-09 10:36:21.948 +0100,605439519.9571381,0,44261.14,100.3804
2020-03-09 10:38:41.501 +0100,1583746720.9997,52.56401952762759,13.41053266171633,47.38559,0,24.42975262383252,9.271523011901484,14.78038207675567,-9999,41576.44895004167,-0.98638916015625,0.3815765380859375,-0.1535797119140625,41576.44392604167,-1.27026006525801,-1.462951659114704,-0.5095179073689724,-0.7983899712562561,-0.6497934460639954,-0.3328185379505157,-0.2041252255439758,0.02210742235183716,-0.07620525360107422,XArbitraryZVertical,-0.5344757204518249,-0.4090889900932967,-0.2917542575975779,0.6796037012230962,-0.8679079413414001,0.4877564609050751,-0.09396380186080933,41488.34302604167,unknown,2,2020-03-09 10:36:21.948 +0100,605439519.9571381,0,44261.14,100.3804
2020-03-09 10:38:41.516 +0100,1583746720.9997,52.56401952762759,13.41053266171633,47.38559,0,24.42975262383252,9.271523011901484,14.78038207675567,-9999,41576.46402404167,-0.85565185546875,0.5236663818359375,-0.1118621826171875,41576.45900004167,-1.285331576391327,-1.480736722043355,-0.5057132638202108,-0.8719426393508911,-0.7384310960769653,-0.3264479637145996,-0.08154785633087158,-0.08626207709312439,-0.07635164260864258,XArbitraryZVertical,-0.5392668460338684,-0.4121299744480776,-0.293281142310749,0.6732950970439395,-0.8712837696075439,0.4844315350055695,-0.07868030667304993,41488.34302604167,unknown,2,2020-03-09 10:36:21.948 +0100,605439519.9571381,0,44261.14,100.3804
