loggingTime(txt),accelerometerTimestamp_sinceReboot(s),accelerometerAccelerationX(G),accelerometerAccelerationY(G),accelerometerAccelerationZ(G),motionTimestamp_sinceReboot(s),motionYaw(rad),motionRoll(rad),motionPitch(rad),motionRotationRateX(rad/s),motionRotationRateY(rad/s),motionRotationRateZ(rad/s),motionUserAccelerationX(G),motionUserAccelerationY(G),motionUserAccelerationZ(G),motionAttitudeReferenceFrame(txt),motionQuaternionX(R),motionQuaternionY(R),motionQuaternionZ(R),motionQuaternionW(R),motionGravityX(G),motionGravityY(G),motionGravityZ(G),activityTimestamp_sinceReboot(s),activity(txt),activityActivityConfidence(Z),activityActivityStartDate(txt),altimeterTimestamp_sinceReboot(s),altimeterReset(bool),altimeterRelativeAltitude(m),altimeterPressure(kPa)
2020-03-09 10:46:15.935 +0100,42030.851859625,-0.15155029296875,0.6401214599609375,-0.7495880126953125,42030.846834625,-1.199115101720351,-0.1900335738521828,-0.6961813692080464,-0.05169633403420448,0.00377222616225481,0.00185005459934473,-0.009000912308692932,-0.008281886577606201,0.00541079044342041,XArbitraryZVertical,-0.3306643692475952,0.1179799619109518,-0.5013250520988826,0.7908316936728946,-0.1449360847473145,0.6412923336029053,-0.7534835934638977,42030.4940715,stationary,2,2020-03-09 10:46:15.545 +0100,605439974.5382657,0,44259.23,100.3879
2020-03-09 10:46:15.946 +0100,42030.866933625,-0.152679443359375,0.6485748291015625,-0.7593994140625,42030.861908625,-1.199217186518726,-0.1900873571430197,-0.6968238758788508,-0.02658778429031372,-0.0007447609677910805,0.002083347178995609,-0.006627380847930908,-0.001771092414855957,0.003441751003265381,XArbitraryZVertical,-0.3309141235581951,0.1181537967958786,-0.5012712795983567,0.7907353617925156,-0.1448987275362015,0.641785204410553,-0.7530710697174072,42030.4940715,stationary,2,2020-03-09 10:46:15.545 +0100,605439974.5382657,0,44259.23,100.3879
2020-03-09 10:46:15.948 +0100,42030.882007625,-0.14532470703125,0.649993896484375,-0.755584716796875,42030.876982625,-1.199254173798153,-0.1901444459024577,-0.6968949779047293,0.01207699626684189,-0.005824843887239695,-0.007067440077662468,-0.006333619356155396,0.006383597850799561,-0.007689177989959717,XArbitraryZVertical,-0.3309530482550276,0.1181570501327577,-0.5012670143504275,0.7907213318207615,-0.1449330896139145,0.6418397426605225,-0.7530179619789124,42030.4940715,stationary,2,2020-03-09 10:46:15.545 +0100,605439974.5382657,0,44259.23,100.3879
2020-03-09 10:46:15.950 +0100,42030.897081625,-0.14361572265625,0.647369384765625,-0.7564544677734375,42030.892057625,-1.199353269237327,-0.1902689337580083,-0.6964960154219831,0.03164042532444,-0.003258622251451015,-0.01272352784872055,-0.0002252459526062012,0.008352875709533691,-0.002374589443206787,XArbitraryZVertical,-0.3308279649724477,0.1180135564747598,-0.5013385523534764,0.7907497354335858,-0.1450752466917038,0.6415337324142456,-0.753251314163208,42030.4940715,stationary,2,2020-03-09 10:46:15.545 +0100,605439974.5382657,0,44259.23,100.3879
2020-03-09 10:46:15.968 +0100,42030.912156625,-0.14227294921875,0.6431121826171875,-0.753082275390625,42030.907131625,-1.199521557247973,-0.190453778873175,-0.6959287191409931,0.04278212040662766,-0.004880620166659355,-0.01274500042200089,0.001112058758735657,0.003508687019348145,-0.002868175506591797,XArbitraryZVertical,-0.3306504675398323,0.1178109070123569,-0.501449806757536,0.7907836335614121,-0.1452833563089371,0.6410984396934509,-0.753581702709198,42030.4940715,stationary,2,2020-03-09 10:46:15.545 +0100,605439974.5382657,0,44259.23,100.3879
2020-03-09 10:46:15.980 +0100,42030.92723062501,-0.1511077880859375,0.63525390625,-0.7466278076171875,42030.922205625,-1.199636668435322,-0.1906326655523316,-0.6953668081832655,0.02763379365205765,-0.007370941806584597,-0.0104288486763835,0.003237739205360413,0.002337932586669922,0.0007858872413635254,XArbitraryZVertical,-0.3304766497849013,0.1176032603633669,-0.5015403060334844,0.7908298132111939,-0.1454863846302032,0.6406671404838562,-0.7539092898368835,42030.4940715,stationary,2,2020-03-09 10:46:15.545 +0100,605439974.5382657,0,44259.23,100.3879
2020-03-09 10:46:15.994 +0100,42030.942304625,-0.1535797119140625,0.6331634521484375,-0.7445220947265625,42030.937279625,-1.199845322580595,-0.1908455980979178,-0.6951756247837366,-0.00590402027592063,0.0008340952917933464,-0.01087323017418385,-0.005779534578323364,-0.005709171295166016,0.008947134017944336,XArbitraryZVertical,-0.330445687908726,0.1175004659820359,-0.5016129896420219,0.7908119518462072,-0.1456701457500458,0.6405203342437744,-0.7539985775947571,42030.4940715,stationary,2,2020-03-09 10:46:15.545 +0100,605439974.5382657,0,44259.23,100.3879
2020-03-09 10:46:16.009 +0100,42030.957378625,-0.158477783203125,0.6350860595703125,-0.748687744140625,42030.95235462501,-1.200129273860225,-0.1910090157297716,-0.6953740637612711,-0.02601798251271248,0.004986420273780823,-0.009007719345390797,-0.007786154747009277,-0.007616400718688965,0.009286701679229736,XArbitraryZVertical,-0.3305448152709721,0.1175378710012794,-0.5016719189983203,0.7907275701020158,-0.1457692384719849,0.6406726837158203,-0.7538499236106873,42030.4940715,stationary,2,2020-03-09 10:46:15.545 +0100,605439974.5382657,0,44259.23,100.3879
2020-03-09 10:46:16.024 +0100,42030.972453625,-0.15460205078125,0.6406097412109375,-0.7607879638671875,42030.967428625,-1.200445778666686,-0.1911857783118665,-0.6957907870979742,-0.03098141029477119,-0.000119050033390522,-0.01169055420905352,-0.01080116629600525,-0.004304766654968262,0.001201510429382324,XArbitraryZVertical,-0.3307276365045042,0.1176360238886864,-0.501712474740232,0.7906108034917767,-0.1458517462015152,0.6409925818443298,-0.7535619735717773,42030.4940715,stationary,2,2020-03-09 10:46:15.545 +0100,605439974.5382657,0,44259.23,100.3879
2020-03-09 10:46:16.039 +0100,42030.987527625,-0.148101806640625,0.644989013671875,-0.7576141357421875,42030.982502625,-1.200745027258196,-0.1913894001177611,-0.6961387353435636,-0.01103673037141562,-0.00702862162142992,-0.01045671198517084,-0.008614927530288696,-0.0007571578025817871,-0.007515907287597656,XArbitraryZVertical,-0.3308922340039495,0.1177016435669546,-0.5017508267892679,0.7905078849385155,-0.1459627449512482,0.6412596106529236,-0.7533133029937744,42030.4940715,stationary,2,2020-03-09 10:46:15.545 +0100,605439974.5382657,0,44259.23,100.3879
2020-03-09 10:46:16.054 +0100,42031.002601625,-0.1453399658203125,0.6481170654296875,-0.757843017578125,42030.997576625,-1.200892896165886,-0.1916329619197812,-0.6959274039164058,0.0261068306863308,-0.009823787957429886,-0.008817669004201889,0.001482129096984863,0.00494384765625,-0.003695368766784668,XArbitraryZVertical,-0.3308650306585693,0.1175711797080185,-0.5017970933212041,0.790509209354226,-0.1461720168590546,0.6410974860191345,-0.7534106969833374,42030.4940715,stationary,2,2020-03-09 10:46:15.545 +0100,605439974.5382657,0,44259.23,100.3879
2020-03-09 10:46:16.069 +0100,42031.017675625,-0.15350341796875,0.6484222412109375,-0.75701904296875,42031.012650625,-1.201068429699459,-0.1918399225494087,-0.6955010908512668,0.03055294416844845,-0.003476735204458237,-0.01923515647649765,0.001064538955688477,0.007239758968353271,-0.004235446453094482,XArbitraryZVertical,-0.3307459720330281,0.1173998948009458,-0.5018889184838937,0.7905263488510305,-0.1463800519704819,0.6407701969146729,-0.7536487579345703,42030.4940715,stationary,2,2020-03-09 10:46:15.545 +0100,605439974.5382657,0,44259.23,100.3879
2020-03-09 10:46:16.084 +0100,42031.032749625,-0.165496826171875,0.6419525146484375,-0.748077392578125,42031.027725625,-1.201303595003812,-0.1920766612635544,-0.6948895945371711,0.03831683844327927,-0.004840317647904158,-0.01871494203805923,-0.01136228442192078,0.007175266742706299,-0.0008186101913452148,XArbitraryZVertical,-0.3305611857922719,0.1171752835717165,-0.5020240549348259,0.7905510973069385,-0.1466332376003265,0.6403006315231323,-0.7539985179901123,42030.4940715,stationary,2,2020-03-09 10:46:15.545 +0100,605439974.5382657,0,44259.23,100.3879
2020-03-09 10:46:16.099 +0100,42031.04782462501,-0.16357421875,0.624481201171875,-0.74627685546875,42031.042799625,-1.201561067153993,-0.1923223892750158,-0.6944340506141132,0.01185913011431694,-0.00764116458594799,-0.01874902844429016,-0.0185980498790741,0.001894831657409668,0.00613027811050415,XArbitraryZVertical,-0.3304361342250869,0.1169940441098859,-0.5021457884756624,0.7905529545798196,-0.1468742489814758,0.6399506330490112,-0.7542487382888794,42030.4940715,stationary,2,2020-03-09 10:46:15.545 +0100,605439974.5382657,0,44259.23,100.3879
2020-03-09 10:46:16.115 +0100,42031.062898625,-0.155517578125,0.6308135986328125,-0.7483367919921875,42031.057873625,-1.20193029113526,-0.1926649031964872,-0.6944402020671457,-0.02141248248517513,-0.003611964173614979,-0.01506411284208298,-0.01264888048171997,-0.01526075601577759,0.00877678394317627,XArbitraryZVertical,-0.3305028729162233,0.1169214000450152,-0.5022343188896642,0.7904795203414391,-0.1471318304538727,0.6399554014205933,-0.7541944980621338,42030.4940715,stationary,2,2020-03-09 10:46:15.545 +0100,605439974.5382657,0,44259.23,100.3879
2020-03-09 10:46:16.130 +0100,42031.077972625,-0.1477203369140625,0.64093017578125,-0.7549591064453125,42031.07294762501,-1.202362919539947,-0.1929845228201077,-0.6948411199204333,-0.03475324437022209,-0.002052003517746925,-0.01755570061504841,-0.008169323205947876,-0.009556829929351807,0.00551760196685791,XArbitraryZVertical,-0.3307088558219462,0.1169781123925487,-0.5022990885005908,0.7903438256256972,-0.1473236531019211,0.6402633786201477,-0.7538955211639404,42030.4940715,stationary,2,2020-03-09 10:46:15.545 +0100,605439974.5382657,0,44259.23,100.3879
2020-03-09 10:46:16.145 +0100,42031.093046625,-0.1357879638671875,0.645233154296875,-0.760711669921875,42031.088022625,-1.202770552613439,-0.1932837958698018,-0.6952617322233602,-0.01974144391715527,-0.0001534800976514816,-0.01437505427747965,0.00386066734790802,0.002571165561676025,-0.003900408744812012,XArbitraryZVertical,-0.3309185704892274,0.1170443348408278,-0.5023546133749607,0.7902108939835336,-0.1474975198507309,0.6405864357948303,-0.7535870671272278,42030.4940715,stationary,2,2020-03-09 10:46:15.545 +0100,605439974.5382657,0,44259.23,100.3879
2020-03-09 10:46:16.160 +0100,42031.108121625,-0.138580322265625,0.6470489501953125,-0.7559814453125,42031.103096625,-1.203006883881955,-0.1934559670960571,-0.6952926813374612,0.01187347341328859,-0.001753240823745728,-0.01069909334182739,0.01186013221740723,0.004515767097473145,-0.007210671901702881,XArbitraryZVertical,-0.3309596382608841,0.1170240249112719,-0.5024153683577438,0.7901580879582517,-0.1476234644651413,0.6406102180480957,-0.7535421848297119,42030.4940715,stationary,2,2020-03-09 10:46:15.545 +0100,605439974.5382657,0,44259.23,100.3879
2020-03-09 10:46:16.175 +0100,42031.123195625,-0.1558380126953125,0.64630126953125,-0.7477569580078125,42031.118170625,-1.203130821418213,-0.1935210707172427,-0.6949368261564367,0.0332685299217701,0.00195099413394928,-0.01015244517475367,0.004415214061737061,0.009092152118682861,-0.001762807369232178,XArbitraryZVertical,-0.3308347785860555,0.1169197545558915,-0.5025010201135606,0.7901713473291677,-0.1477163434028625,0.6403369307518005,-0.7537562251091003,42030.4940715,stationary,2,2020-03-09 10:46:15.545 +0100,605439974.5382657,0,44259.23,100.3879
2020-03-09 10:46:16.190 +0100,42031.138269625,-0.1671142578125,0.6344757080078125,-0.736175537109375,42031.133244625,-1.203267870761854,-0.1935724854182616,-0.6943484562640366,0.03378636389970779,0.005645804107189178,-0.01801323145627975,-0.007985785603523254,0.006309390068054199,0.006320178508758545,XArbitraryZVertical,-0.330618176824657,0.1167582945926347,-0.502625105169748,0.7902069811825422,-0.1478275507688522,0.639884889125824,-0.7541182637214661,42030.4940715,stationary,2,2020-03-09 10:46:15.545 +0100,605439974.5382657,0,44259.23,100.3879
2020-03-09 10:46:16.205 +0100,42031.153343625,-0.163238525390625,0.6324310302734375,-0.7405242919921875,42031.148319625,-1.203569064413992,-0.1936817145043318,-0.6938844517797341,0.01880362629890442,0.01056402735412121,-0.02148269861936569,-0.01834432780742645,-0.007326185703277588,0.01806998252868652,XArbitraryZVertical,-0.3304533617459855,0.1166357036960057,-0.5027878965007141,0.7901904784837779,-0.147967055439949,0.639528214931488,-0.7543933987617493,42030.4940715,stationary,2,2020-03-09 10:46:15.545 +0100,605439974.5382657,0,44259.23,100.3879
2020-03-09 10:46:16.220 +0100,42031.16841862501,-0.1578826904296875,0.637359619140625,-0.745269775390625,42031.163393625,-1.203934541969455,-0.1937685379022581,-0.6936209556205341,0.009597346186637878,0.009992780163884163,-0.02161958441138268,-0.01514877378940582,-0.007001638412475586,0.0139804482460022,XArbitraryZVertical,-0.3303547080372163,0.11658843040942,-0.5029530759931162,0.790133481823295,-0.148064985871315,0.6393256783485413,-0.7545458078384399,42030.4940715,stationary,2,2020-03-09 10:46:15.545 +0100,605439974.5382657,0,44259.23,100.3879
2020-03-09 10:46:16.235 +0100,42031.183492625,-0.146453857421875,0.63671875,-0.757080078125,42031.178467625,-1.204272237878349,-0.1938063871829653,-0.6934516855802305,0.005772381089627743,0.01279866974800825,-0.0165561493486166,-0.007592067122459412,-0.001698732376098633,0.004956305027008057,XArbitraryZVertical,-0.3302808210935231,0.1165820850102931,-0.5031027904782788,0.7900700038972128,-0.1481143832206726,0.6391955018043518,-0.7546464204788208,42030.4940715,stationary,2,2020-03-09 10:46:15.545 +0100,605439974.5382657,0,44259.23,100.3879
2020-03-09 10:46:16.250 +0100,42031.198566625,-0.133331298828125,0.640289306640625,-0.7630157470703125,42031.19354162501,-1.204528718055454,-0.1937783049368439,-0.6932717191861553,0.01651424169540405,0.01055176090449095,-0.01339098252356052,0.00168628990650177,-0.002445340156555176,-0.002357661724090576,XArbitraryZVertical,-0.3301910543251517,0.1165853540662429,-0.5032327220970452,0.7900243424428531,-0.1481153517961502,0.6390570998191833,-0.7547634243965149,42030.4940715,stationary,2,2020-03-09 10:46:15.545 +0100,605439974.5382657,0,44259.23,100.3879
2020-03-09 10:46:16.265 +0100,42031.213640625,-0.1335601806640625,0.6463775634765625,-0.7590484619140625,42031.208616625,-1.204523562406653,-0.1935674091777817,-0.6927971700298193,0.04903976991772652,0.01667635142803192,0.001818596385419369,0.01626433432102203,0.007044613361358643,-0.006392836570739746,XArbitraryZVertical,-0.3299596483895693,0.1165355426405627,-0.5033287064809021,0.7900672554004524,-0.1480145007371902,0.6386920213699341,-0.7550922036170959,42030.4940715,stationary,2,2020-03-09 10:46:15.545 +0100,605439974.5382657,0,44259.23,100.3879
2020-03-09 10:46:16.280 +0100,42031.228715625,-0.150115966796875,0.6267547607421875,-0.752685546875,42031.223690625,-1.204229421689816,-0.1931700487688358,-0.6919697959180348,0.06576761603355408,0.01236389391124249,0.004360849969089031,0.01428034901618958,0.008215546607971191,-0.003420054912567139,XArbitraryZVertical,-0.3295652528032239,0.1164134645100988,-0.5033881175140156,0.7902119984480582,-0.1478158384561539,0.638055145740509,-0.7556692957878113,42030.4940715,stationary,2,2020-03-09 10:46:15.545 +0100,605439974.5382657,0,44259.23,100.3879
2020-03-09 10:46:16.295 +0100,42031.243789625,-0.1606903076171875,0.62744140625,-0.7487335205078125,42031.238764625,-1.203886774009243,-0.1927962754355043,-0.6911124916759741,0.05234713107347488,0.01396180503070354,0.006759792566299438,-0.00513865053653717,-0.01028907299041748,0.00416034460067749,XArbitraryZVertical,-0.3291681892929059,0.116265858764753,-0.503428185407388,0.7903737196291905,-0.147638127207756,0.6373947858810425,-0.7562611103057861,42030.4940715,stationary,2,2020-03-09 10:46:15.545 +0100,605439974.5382657,0,44259.23,100.3879
2020-03-09 10:46:16.310 +0100,42031.258863625,-0.1651611328125,0.6269378662109375,-0.7549591064453125,42031.253838625,-1.203639006410734,-0.1924501660032658,-0.69056348776503,0.03009839728474617,0.01122188661247492,0.00587861891835928,-0.0132223516702652,-0.009637117385864258,0.00788116455078125,XArbitraryZVertical,-0.3288886231664657,0.1162089729894513,-0.5034600631717315,0.7904781108955244,-0.1474432796239853,0.636971652507782,-0.7566555142402649,42030.4940715,stationary,2,2020-03-09 10:46:15.545 +0100,605439974.5382657,0,44259.23,100.3879
2020-03-09 10:46:16.326 +0100,42031.273937625,-0.156524658203125,0.6287689208984375,-0.75634765625,42031.268912625,-1.203489382450354,-0.1922544395115887,-0.6902223688125354,0.0122882230207324,0.006222822703421116,0.0008064620196819305,-0.01544992625713348,-0.01065576076507568,0.0003412961959838867,XArbitraryZVertical,-0.3287194997985844,0.1161667467386637,-0.503478333149131,0.79054298243814,-0.1473366767168045,0.636708676815033,-0.7568975687026978,42030.4940715,stationary,2,2020-03-09 10:46:15.545 +0100,605439974.5382657,0,44259.23,100.3879
2020-03-09 10:46:16.341 +0100,42031.28901162501,-0.1509246826171875,0.639251708984375,-0.7600860595703125,42031.283987625,-1.203443783440479,-0.1921653672624727,-0.6900942510813119,0.004290483891963959,0.004718936048448086,-0.0008361758664250374,-0.009215161204338074,-0.007947742938995361,0.0006023645401000977,XArbitraryZVertical,-0.3286514386656335,0.1161587832466586,-0.5034919264446879,0.790563785715663,-0.1472848355770111,0.6366098523139954,-0.7569907307624817,42030.4940715,stationary,2,2020-03-09 10:46:15.545 +0100,605439974.5382657,0,44259.23,100.3879
2020-03-09 10:46:16.356 +0100,42031.304086625,-0.1464691162109375,0.6435089111328125,-0.764312744140625,42031.299061625,-1.20348604391911,-0.1921013223321162,-0.6900574323448049,0.003158279694616795,0.004583749920129776,-0.006451351102441549,-0.0041627436876297,0.0052032470703125,-0.00389707088470459,XArbitraryZVertical,-0.3286189695066977,0.1161807627750965,-0.5035240258096149,0.7905536701531145,-0.1472408324480057,0.6365814805030823,-0.7570232152938843,42030.4940715,stationary,2,2020-03-09 10:46:15.545 +0100,605439974.5382657,0,44259.23,100.3879
2020-03-09 10:46:16.371 +0100,42031.319160625,-0.1421661376953125,0.650146484375,-0.7627105712890625,42031.31413562501,-1.203578215858293,-0.1920477487640475,-0.6899073629516396,0.01216377783566713,0.009421990253031254,-0.006491598673164845,0.0007740557193756104,0.006936430931091309,-0.007228612899780273,XArbitraryZVertical,-0.3285435844336599,0.116175328199151,-0.5035891532160611,0.7905442197677318,-0.1472184956073761,0.6364657282829285,-0.7571248412132263,42030.4940715,stationary,2,2020-03-09 10:46:15.545 +0100,605439974.5382657,0,44259.23,100.3879
2020-03-09 10:46:16.386 +0100,42031.334234625,-0.1433563232421875,0.645965576171875,-0.757537841796875,42031.329209625,-1.203640732405467,-0.1919468112336639,-0.689614803433818,0.02188530378043652,0.010603959672153,-0.007460389286279678,0.003784865140914917,0.01288425922393799,-0.003170490264892578,XArbitraryZVertical,-0.3284042587081688,0.116144002094051,-0.5036691867315036,0.7905557400119206,-0.147177591919899,0.6362400650978088,-0.7573224306106567,42030.4940715,stationary,2,2020-03-09 10:46:15.545 +0100,605439974.5382657,0,44259.23,100.3879
2020-03-09 10:46:16.401 +0100,42031.349308625,-0.1471405029296875,0.6416168212890625,-0.751861572265625,42031.344284625,-1.203751324446216,-0.1918746112438881,-0.6891735581055154,0.03076455183327198,0.01175844017416239,-0.01217338535934687,0.003844767808914185,0.00995934009552002,3.010034561157227e-05,XArbitraryZVertical,-0.3282133182241936,0.1160677732209217,-0.5037831625086081,0.7905736397109697,-0.1471764445304871,0.6358996033668518,-0.7576085925102234,42030.4940715,stationary,2,2020-03-09 10:46:15.545 +0100,605439974.5382657,0,44259.23,100.3879
2020-03-09 10:46:16.416 +0100,42031.364383625,-0.1580963134765625,0.6396636962890625,-0.7487640380859375,42031.359358625,-1.203961109342229,-0.1918285516618408,-0.6886983655083322,0.02869614586234093,0.0164412260055542,-0.02034256607294083,-0.003716140985488892,0.004192233085632324,0.007291555404663086,XArbitraryZVertical,-0.3280103979984051,0.1159879899400341,-0.5039365157518172,0.7905718827656977,-0.1471991539001465,0.6355327367782593,-0.7579119205474854,42030.4940715,stationary,2,2020-03-09 10:46:15.545 +0100,605439974.5382657,0,44259.23,100.3879
2020-03-09 10:46:16.431 +0100,42031.379457625,-0.1610260009765625,0.6389312744140625,-0.749298095703125,42031.374432625,-1.204288334272856,-0.1918153360794731,-0.68813152318328,0.03609737753868103,0.01282397005707026,-0.02610977366566658,-0.0108138769865036,0.004462122917175293,0.009462833404541016,XArbitraryZVertical,-0.3277744154239905,0.1158889181178744,-0.5041430045925175,0.7905526140477988,-0.1472577899694443,0.6350950002670288,-0.7582674026489258,42030.4940715,stationary,2,2020-03-09 10:46:15.545 +0100,605439974.5382657,0,44259.23,100.3879
2020-03-09 10:46:16.446 +0100,42031.394531625,-0.1665802001953125,0.6324615478515625,-0.7509765625,42031.389506625,-1.204669828361176,-0.1918589335845874,-0.6875292969820185,0.03485282510519028,0.01364459563046694,-0.02860013023018837,-0.01562121510505676,0.001448512077331543,0.009801268577575684,XArbitraryZVertical,-0.3275362839686174,0.1157663125943932,-0.5043662759076123,0.7905268803844602,-0.1473637521266937,0.6346297264099121,-0.7586362957954407,42030.4940715,stationary,2,2020-03-09 10:46:15.545 +0100,605439974.5382657,0,44259.23,100.3879
2020-03-09 10:46:16.469 +0100,42031.40960562501,-0.1688995361328125,0.6255035400390625,-0.7556610107421875,42031.404581625,-1.205078522665325,-0.1918851500438191,-0.6869388081100418,0.03355453535914421,0.01319957990199327,-0.0294286385178566,-0.01910045742988586,-0.001818060874938965,0.007983207702636719,XArbitraryZVertical,-0.3272966548705319,0.1156582082705696,-0.5046015657964684,0.7904918026540254,-0.1474550813436508,0.6341732740402222,-0.7590001821517944,42030.4940715,stationary,2,2020-03-09 10:46:15.545 +0100,605439974.5382657,0,44259.23,100.3879
2020-03-09 10:46:16.478 +0100,42031.424680625,-0.1541900634765625,0.6185150146484375,-0.760986328125,42031.419655625,-1.20544852768613,-0.1919326443893495,-0.6863652324973868,0.03834401816129684,0.009037163108587265,-0.02293834835290909,-0.01962056756019592,-0.01075875759124756,0.001222491264343262,XArbitraryZVertical,-0.3270710618292254,0.1155400263343459,-0.504815831947353,0.7904655515908091,-0.1475604772567749,0.6337296962738037,-0.759350061416626,42030.4940715,stationary,2,2020-03-09 10:46:15.545 +0100,605439974.5382657,0,44259.23,100.3879
2020-03-09 10:46:16.491 +0100,42031.439754625,-0.13299560546875,0.6146087646484375,-0.762542724609375,42031.43472962501,-1.205658907469791,-0.1919365664108155,-0.6858275205184988,0.02471949532628059,0.009323379024863243,-0.01124823652207851,-0.006536871194839478,-0.01490491628646851,-0.0013427734375,XArbitraryZVertical,-0.3268572026438412,0.1154228410122946,-0.5049693558207353,0.790473091834561,-0.14762844145298,0.6333136558532715,-0.7596838474273682,42030.4940715,stationary,2,2020-03-09 10:46:15.545 +0100,605439974.5382657,0,44259.23,100.3879
2020-03-09 10:46:16.506 +0100,42031.454828625,-0.119140625,0.634613037109375,-0.776763916015625,42031.449803625,-1.205713255860476,-0.1918198992011055,-0.6857600328174852,-0.008458486758172512,0.01351349428296089,0.006004086695611477,0.01962773501873016,-0.01495945453643799,-0.008195757865905762,XArbitraryZVertical,-0.3267991575931366,0.1154589847262734,-0.5050188068865314,0.7904602615896152,-0.1475479602813721,0.6332614421844482,-0.7597430944442749,42030.4940715,stationary,2,2020-03-09 10:46:15.545 +0100,605439974.5382657,0,44259.23,100.3879
2020-03-09 10:46:16.522 +0100,42031.469902625,-0.1316070556640625,0.640533447265625,-0.779266357421875,42031.464877625,-1.205563080767508,-0.1915383233469662,-0.6861188128121752,-0.03385066241025925,0.009606370702385902,0.01926849409937859,0.02817481756210327,0.0009676218032836914,-0.01724278926849365,XArbitraryZVertical,-0.3268720039149945,0.1156458554730602,-0.5049581125061237,0.7904415387812519,-0.1472907662391663,0.6335390210151672,-0.7595614790916443,42030.4940715,stationary,2,2020-03-09 10:46:15.545 +0100,605439974.5382657,0,44259.23,100.3879
2020-03-09 10:46:16.537 +0100,42031.484976625,-0.1534881591796875,0.6296234130859375,-0.773406982421875,42031.479952625,-1.205272894228447,-0.191254105152791,-0.6868664642905912,-0.05298573896288872,0.005240857601165771,0.03302651643753052,0.01166398823261261,0.003669857978820801,-0.01911580562591553,XArbitraryZVertical,-0.3270988935122939,0.1159192502378329,-0.5047911840433865,0.7904143261423836,-0.146984800696373,0.6341173052787781,-0.7591381072998047,42030.4940715,stationary,2,2020-03-09 10:46:15.545 +0100,605439974.5382657,0,44259.23,100.3879
2020-03-09 10:46:16.552 +0100,42031.500051625,-0.18072509765625,0.6236419677734375,-0.7687835693359375,42031.495026625,-1.20487897938402,-0.1910379732963072,-0.6878725415283719,-0.07020571827888489,-0.007185645401477814,0.0320965051651001,-0.006764039397239685,-0.005378186702728271,-0.01490437984466553,XArbitraryZVertical,-0.3274464803056944,0.1162207162592171,-0.5045380104354905,0.7903878073358762,-0.1466995179653168,0.6348949670791626,-0.758543074131012,42030.4940715,stationary,2,2020-03-09 10:46:15.545 +0100,605439974.5382657,0,44259.23,100.3879
2020-03-09 10:46:16.567 +0100,42031.515125625,-0.18951416015625,0.6157379150390625,-0.7632598876953125,42031.510100625,-1.204717994029069,-0.1911957721809165,-0.6890176634927624,-0.07899255305528641,-0.02420484274625778,0.01696336083114147,-0.03855137526988983,-0.01540285348892212,-0.008195757865905762,XArbitraryZVertical,-0.3279272828564821,0.1164511918916536,-0.5042971884377351,0.7903081900741185,-0.1466809511184692,0.6357792615890503,-0.7578056454658508,42030.4940715,stationary,2,2020-03-09 10:46:15.545 +0100,605439974.5382657,0,44259.23,100.3879
2020-03-09 10:46:16.582 +0100,42031.53019962501,-0.1679840087890625,0.6306915283203125,-0.7716522216796875,42031.525174625,-1.204910824447195,-0.1917766681171345,-0.6902832372124105,-0.09076639264822006,-0.03861334174871445,-0.007428797893226147,-0.04252178966999054,-0.02112495899200439,-0.006371021270751953,XArbitraryZVertical,-0.3285393742493836,0.1166060854689245,-0.5041104902681133,0.7901501937417467,-0.1469676494598389,0.6367555856704712,-0.7569298148155212,42030.4940715,stationary,2,2020-03-09 10:46:15.545 +0100,605439974.5382657,0,44259.23,100.3879
2020-03-09 10:46:16.597 +0100,42031.545273625,-0.1441650390625,0.6548614501953125,-0.758941650390625,42031.540249625,-1.205395913669174,-0.1926494993043543,-0.6912749299907748,-0.05500537157058716,-0.04221028089523315,-0.01771822012960911,-0.01068630814552307,-0.001030623912811279,-0.01018685102462769,XArbitraryZVertical,-0.3291045565237838,0.1166175200962645,-0.5040270159137726,0.7899665587728446,-0.1475072950124741,0.6375199556350708,-0.7561810612678528,42030.4940715,stationary,2,2020-03-09 10:46:15.545 +0100,605439974.5382657,0,44259.23,100.3879
2020-03-09 10:46:16.612 +0100,42031.560348625,-0.1514739990234375,0.66387939453125,-0.7483673095703125,42031.55532362501,-1.205915609449367,-0.1935313323292657,-0.691799722274103,-0.028943732380867,-0.03391999378800392,-0.02342773787677288,0.003969579935073853,0.01682990789413452,-0.003260433673858643,XArbitraryZVertical,-0.3294940313352689,0.1165011573814113,-0.5040172785146851,0.7898276405026982,-0.1481097042560577,0.6379241943359375,-0.7557223439216614,42030.4940715,stationary,2,2020-03-09 10:46:15.545 +0100,605439974.5382657,0,44259.23,100.3879
2020-03-09 10:46:16.627 +0100,42031.575422625,-0.163055419921875,0.658172607421875,-0.725860595703125,42031.570397625,-1.206434779017195,-0.1942430335076559,-0.6918733879023067,-0.01267174072563648,-0.02055074833333492,-0.02570300921797752,-0.007128790020942688,0.02452456951141357,0.01428806781768799,XArbitraryZVertical,-0.3296708933923897,0.1163262138333982,-0.5040951953480859,0.7897299197550079,-0.148638442158699,0.6379808783531189,-0.755570650100708,42030.4940715,stationary,2,2020-03-09 10:46:15.545 +0100,605439974.5382657,0,44259.23,100.3879
2020-03-09 10:46:16.642 +0100,42031.590496625,-0.169036865234375,0.6209869384765625,-0.723968505859375,42031.585471625,-1.207181456669055,-0.1949607154238355,-0.6918023356714715,0.005685694515705109,-0.01761674322187901,-0.03999166935682297,-0.01384085416793823,0.02013885974884033,0.0296064019203186,XArbitraryZVertical,-0.3297817257345911,0.1161461707659413,-0.5042811795025924,0.7895912586858892,-0.1491894274950027,0.6379262208938599,-0.7555081844329834,42030.4940715,stationary,2,2020-03-09 10:46:15.545 +0100,605439974.5382657,0,44259.23,100.3879
2020-03-09 10:46:16.657 +0100,42031.605570625,-0.1623077392578125,0.6574554443359375,-0.7362518310546875,42031.600546625,-1.208071974187136,-0.1957246734244328,-0.6915890671268355,0.005087738856673241,-0.005424999631941319,-0.04751556366682053,-0.02484916150569916,0.002633571624755859,0.03311997652053833,XArbitraryZVertical,-0.3298425198918681,0.1159318040276005,-0.5045352019285898,0.7894351940817765,-0.1497930288314819,0.6377619504928589,-0.7555274367332458,42030.4940715,stationary,2,2020-03-09 10:46:15.545 +0100,605439974.5382657,0,44259.23,100.3879
2020-03-09 10:46:16.672 +0100,42031.620645625,-0.1303558349609375,0.6405029296875,-0.765350341796875,42031.615620625,-1.20920228623085,-0.1965125334328358,-0.6915198823762474,-0.01659843884408474,-0.001319840550422668,-0.06384064257144928,-0.01188556849956512,0.01963925361633301,0.01915937662124634,XArbitraryZVertical,-0.3299498764674491,0.1157880013969224,-0.5048605967039382,0.7892032820345083,-0.1503968387842178,0.6377086639404297,-0.7554524540901184,42030.4940715,stationary,2,2020-03-09 10:46:15.545 +0100,605439974.5382657,0,44259.23,100.3879
2020-03-09 10:46:16.687 +0100,42031.635719625,-0.1164398193359375,0.6601104736328125,-0.763458251953125,42031.630694625,-1.210407464960202,-0.1973226055874567,-0.6915018776701367,0.004925076849758625,-0.00472842063754797,-0.05054274573922157,0.02824896574020386,0.008209049701690674,-0.01043140888214111,XArbitraryZVertical,-0.3300779379888428,0.1156622244652389,-0.5052048303247684,0.7889478394981397,-0.1510110199451447,0.637694776058197,-0.7553415894508362,42030.4940715,stationary,2,2020-03-09 10:46:15.545 +0100,605439974.5382657,0,44259.23,100.3879
2020-03-09 10:46:16.702 +0100,42031.65079362501,-0.1275634765625,0.6472320556640625,-0.7696685791015625,42031.645768625,-1.211234745211975,-0.1979235539418547,-0.6912128662255157,0.01193132065236568,-0.001740620471537113,-0.04366646334528923,0.03508681058883667,0.02253079414367676,-0.008068084716796875,XArbitraryZVertical,-0.3300734732652326,0.1154807494521146,-0.5054707193847788,0.7888059768875194,-0.1515011340379715,0.6374721527099609,-0.7554314136505127,42030.4940715,stationary,2,2020-03-09 10:46:15.545 +0100,605439974.5382657,0,44259.23,100.3879
2020-03-09 10:46:16.718 +0100,42031.665867625,-0.138946533203125,0.6346282958984375,-0.76983642578125,42031.660843625,-1.212143329282349,-0.198593901639477,-0.6910765514815503,-0.005027154926210642,-0.008073646575212479,-0.049880750477314,0.01992440223693848,0.002662181854248047,-0.01579022407531738,XArbitraryZVertical,-0.330139331389977,0.115328090305528,-0.5057366713479612,0.7886303762107557,-0.1520246565341949,0.6373670697212219,-0.7554149031639099,42030.4940715,stationary,2,2020-03-09 10:46:15.545 +0100,605439974.5382657,0,44259.23,100.3879
2020-03-09 10:46:16.733 +0100,42031.680942625,-0.1548614501953125,0.64630126953125,-0.765350341796875,42031.67591762501,-1.21326295109161,-0.1994131326602447,-0.6911779610277579,-0.02323619648814201,-0.007138181943446398,-0.06043722108006477,0.01370985805988312,-0.002924561500549316,-0.01465106010437012,XArbitraryZVertical,-0.3303200930109792,0.1152185025422977,-0.5060292054000208,0.7883828361878611,-0.1526306420564651,0.6374452114105225,-0.7552266716957092,42030.4940715,stationary,2,2020-03-09 10:46:15.545 +0100,605439974.5382657,0,44259.23,100.3879
2020-03-09 10:46:16.748 +0100,42031.696016625,-0.1740264892578125,0.6562652587890625,-0.7650146484375,42031.690991625,-1.214663554424072,-0.2005891484777112,-0.6913355030612037,0.004059530794620514,-0.03081918694078922,-0.07464265823364258,-0.009973332285881042,0.01329618692398071,-0.008093535900115967,XArbitraryZVertical,-0.3305961348022705,0.1150306189718906,-0.5063656516785364,0.7880786436149828,-0.1534987092018127,0.6375666260719299,-0.7549483180046082,42030.4940715,stationary,2,2020-03-09 10:46:15.545 +0100,605439974.5382657,0,44259.23,100.3879
2020-03-09 10:46:16.763 +0100,42031.711090625,-0.1831817626953125,0.658203125,-0.75439453125,42031.706065625,-1.216129720848834,-0.2022664410628226,-0.6905963909280276,0.05456904694437981,-0.05433010309934616,-0.1007227227091789,-0.01914100348949432,0.01916062831878662,-0.009904801845550537,XArbitraryZVertical,-0.3306600506996594,0.1144043286611394,-0.5067658355315944,0.7878856572053122,-0.1548593789339066,0.6369970440864563,-0.7551511526107788,42030.4940715,stationary,2,2020-03-09 10:46:15.545 +0100,605439974.5382657,0,44259.23,100.3879
2020-03-09 10:46:16.778 +0100,42031.726164625,-0.1909332275390625,0.62579345703125,-0.7451629638671875,42031.72113962501,-1.218135768772947,-0.204267446805071,-0.6891879747178091,0.09119304269552231,-0.05376216024160385,-0.1407233029603958,-0.02883122861385345,0.002348780632019043,-0.003112673759460449,XArbitraryZVertical,-0.3305259390060427,0.113551001670744,-0.5074158207275447,0.7876470350824343,-0.1565519571304321,0.63591068983078,-0.7557175755500793,42030.4940715,stationary,2,2020-03-09 10:46:15.545 +0100,605439974.5382657,0,44259.23,100.3879
2020-03-09 10:46:16.793 +0100,42031.741238625,-0.17584228515625,0.654388427734375,-0.74652099609375,42031.736214625,-1.220591424238183,-0.2065155851907912,-0.6874121894611088,0.09807340055704117,-0.04429686814546585,-0.1578332483768463,-0.03242470324039459,-0.008852839469909668,0.01126366853713989,XArbitraryZVertical,-0.3302939333397945,0.1125702590823384,-0.5082522155542274,0.7873457469961099,-0.1584818214178085,0.6345391869544983,-0.7564677000045776,42030.4940715,stationary,2,2020-03-09 10:46:15.545 +0100,605439974.5382657,0,44259.23,100.3879
2020-03-09 10:46:16.808 +0100,42031.756313625,-0.1348724365234375,0.659149169921875,-0.7561492919921875,42031.751288625,-1.223443058710365,-0.2088739232128846,-0.6855553308233454,0.08633271604776382,-0.03334889560937881,-0.1859738379716873,-0.007966354489326477,0.0247187614440918,0.005310177803039551,XArbitraryZVertical,-0.330040368213399,0.1115874281719524,-0.5092377412714575,0.7869551166791625,-0.1605094224214554,0.6331029534339905,-0.7572432160377502,42030.4940715,stationary,2,2020-03-09 10:46:15.545 +0100,605439974.5382657,0,44259.23,100.3879
2020-03-09 10:46:16.823 +0100,42031.77138762501,-0.1087188720703125,0.6675567626953125,-0.7465972900390625,42031.766362625,-1.226721974834369,-0.2113711655503138,-0.6835393911999066,0.1074944585561752,-0.02384886518120766,-0.1972624510526657,0.027822345495224,0.02750146389007568,0.001896321773529053,XArbitraryZVertical,-0.3297426331224537,0.1105740353817823,-0.5103905258496004,0.7864759990830971,-0.162667378783226,0.6315411925315857,-0.7580863833427429,42030.4940715,stationary,2,2020-03-09 10:46:15.545 +0100,605439974.5382657,0,44259.23,100.3879
2020-03-09 10:46:16.838 +0100,42031.786461625,-0.1187896728515625,0.676025390625,-0.7311553955078125,42031.781436625,-1.230065657500635,-0.2136245485179504,-0.6811971412205393,0.1242019310593605,0.006891483440995216,-0.2004358470439911,0.05608880519866943,0.0430830717086792,0.0200461745262146,XArbitraryZVertical,-0.329261472174294,0.1095726379935225,-0.511653939711929,0.7859967495244827,-0.164688378572464,0.6297234296798706,-0.7591614127159119,42030.4940715,stationary,2,2020-03-09 10:46:15.545 +0100,605439974.5382657,0,44259.23,100.3879
2020-03-09 10:46:16.853 +0100,42031.801535625,-0.145660400390625,0.668792724609375,-0.7317962646484375,42031.79651162501,-1.233560149036333,-0.2155545667114686,-0.6786923953574476,0.1299065798521042,0.0258319117128849,-0.2230760455131531,0.04772846400737762,0.04814398288726807,0.02918487787246704,XArbitraryZVertical,-0.3286328657790983,0.1086744732306679,-0.5130524491330896,0.7854727471100131,-0.1664901226758957,0.6277757287025452,-0.7603806257247925,42030.4940715,stationary,2,2020-03-09 10:46:15.545 +0100,605439974.5382657,0,44259.23,100.3879
2020-03-09 10:46:16.868 +0100,42031.816610625,-0.1677398681640625,0.6652374267578125,-0.722442626953125,42031.811585625,-1.23750518068303,-0.2176283000931123,-0.6758711965228218,0.1430061310529709,0.03204853087663651,-0.2516935467720032,0.0169568657875061,0.04263710975646973,0.03192245960235596,XArbitraryZVertical,-0.3279033814572639,0.1077004789383989,-0.514647907480161,0.7848677469434331,-0.1684483140707016,0.6255772113800049,-0.7617599368095398,42030.4940715,stationary,2,2020-03-09 10:46:15.545 +0100,605439974.5382657,0,44259.23,100.3879
2020-03-09 10:46:16.883 +0100,42031.831684625,-0.1817626953125,0.6427459716796875,-0.735595703125,42031.826659625,-1.241974227679427,-0.2198879106518646,-0.6730812163568695,0.137412965297699,0.03972163051366806,-0.2861133217811584,0.002838000655174255,0.04173427820205688,0.04059523344039917,XArbitraryZVertical,-0.3272104241648522,0.1067449167920995,-0.5164143233027474,0.7841268396856041,-0.1705491840839386,0.6233981847763062,-0.7630777359008789,42030.4940715,stationary,2,2020-03-09 10:46:15.545 +0100,605439974.5382657,0,44259.23,100.3879
2020-03-09 10:46:16.898 +0100,42031.8467575,-0.1888427734375,0.63970947265625,-0.742523193359375,42031.8417325,-1.24681549285476,-0.2222367708269,-0.6697845875271101,0.201583668589592,0.04325296729803085,-0.3022982478141785,-0.01110729575157166,0.0180707573890686,0.02630889415740967,XArbitraryZVertical,-0.3263389552900943,0.1056652656837946,-0.51838172990041,0.7833377427792286,-0.1727931201457977,0.6208171248435974,-0.764675498008728,42030.4940715,stationary,2,2020-03-09 10:46:15.545 +0100,605439974.5382657,0,44259.23,100.3879
2020-03-09 10:46:16.914 +0100,42031.86183150001,-0.184539794921875,0.628326416015625,-0.7746429443359375,42031.8568075,-1.251465084527868,-0.2243616508324388,-0.6649643927695613,0.3188992738723755,0.05161748081445694,-0.322371631860733,-0.01373210549354553,0.022574782371521,0.02465295791625977,XArbitraryZVertical,-0.3248625451497791,0.1041956341845474,-0.5205207173173323,0.7827297229371094,-0.1750813275575638,0.6170310974121094,-0.7672151923179626,42030.4940715,stationary,2,2020-03-09 10:46:15.545 +0100,605439974.5382657,0,44259.23,100.3879
2020-03-09 10:46:16.929 +0100,42031.8769065,-0.174163818359375,0.618133544921875,-0.79351806640625,42031.8718815,-1.256000938613047,-0.2262007462860695,-0.6585491619045065,0.4471363127231598,0.06001333147287369,-0.3418109118938446,-0.005470693111419678,0.00850212574005127,-0.01276737451553345,XArbitraryZVertical,-0.3227355253543679,0.1023473435394953,-0.52288121536471,0.7822799317702334,-0.1773761361837387,0.611970067024231,-0.7707335948944092,42030.4940715,stationary,2,2020-03-09 10:46:15.545 +0100,605439974.5382657,0,44259.23,100.3879
2020-03-09 10:46:16.944 +0100,42031.8919805,-0.1595458984375,0.6471099853515625,-0.7736663818359375,42031.88695550001,-1.260041021241043,-0.227718603773407,-0.6497549276901619,0.5872774720191956,0.06146369129419327,-0.3438269197940826,0.005620226263999939,0.01304054260253906,-0.01787924766540527,XArbitraryZVertical,-0.3196778168106298,0.09983906855977068,-0.5254246276190963,0.7821554270143516,-0.1797538548707962,0.6049913167953491,-0.7756764888763428,42030.4940715,stationary,2,2020-03-09 10:46:15.545 +0100,605439974.5382657,0,44259.23,100.3879
2020-03-09 10:46:16.959 +0100,42031.9070545,-0.17120361328125,0.633270263671875,-0.7649078369140625,42031.9020295,-1.263884825447686,-0.2290113367918911,-0.6395643378243476,0.6698008179664612,0.07143399119377136,-0.3671329319477081,0.02107493579387665,0.0515979528427124,0.01150369644165039,XArbitraryZVertical,-0.316060777655913,0.09696339287061963,-0.5281130246764216,0.7821765867305313,-0.1821466386318207,0.5968459248542786,-0.781407356262207,42030.4940715,stationary,2,2020-03-09 10:46:15.545 +0100,605439974.5382657,0,44259.23,100.3879
2020-03-09 10:46:16.989 +0100,42031.9221285,-0.1905670166015625,0.602020263671875,-0.7706146240234375,42031.9171045,-1.267899831426087,-0.2303672457793038,-0.6281744067157757,0.7094794511795044,0.06374555081129074,-0.4005730748176575,0.01357370615005493,0.04550284147262573,0.02278381586074829,XArbitraryZVertical,-0.3120143564055938,0.09371969330373456,-0.5310133339965709,0.7822329706872745,-0.1847462952136993,0.5876686573028564,-0.7877272963523865,42030.4940715,stationary,2,2020-03-09 10:46:15.545 +0100,605439974.5382657,0,44259.23,100.3879
2020-03-09 10:46:16.990 +0100,42031.93720350001,-0.2026519775390625,0.5736236572265625,-0.769927978515625,42031.9321785,-1.272522197339957,-0.2323105360558792,-0.6168050888851774,0.6584419012069702,0.03604226931929588,-0.4351670742034912,-0.005021452903747559,0.01337462663650513,0.02274119853973389,XArbitraryZVertical,-0.3081110840085641,0.09032555959201784,-0.5340484847748449,0.7821131707549689,-0.1878028959035873,0.5784319043159485,-0.7938176989555359,42030.4940715,stationary,2,2020-03-09 10:46:15.545 +0100,605439974.5382657,0,44259.23,100.3879
2020-03-09 10:46:17.004 +0100,42031.9522775,-0.2160797119140625,0.5753173828125,-0.79437255859375,42031.9472525,-1.278074855038757,-0.2351766182937386,-0.6066348013043819,0.5195173025131226,0.00830437894910574,-0.4686302244663239,-0.01118163764476776,0.003421962261199951,0.02899426221847534,XArbitraryZVertical,-0.3048689882536031,0.0870455002734304,-0.5371396666291212,0.7816386374122393,-0.1914381980895996,0.5701059699058533,-0.7989559769630432,42030.4940715,stationary,2,2020-03-09 10:46:15.545 +0100,605439974.5382657,0,44259.23,100.3879
2020-03-09 10:46:17.019 +0100,42031.9673515,-0.239898681640625,0.4347076416015625,-0.900146484375,42031.9623265,-1.285280228063354,-0.2390253700998637,-0.5993256954304295,0.1993358731269836,0.04739239439368248,-0.53680819272995,-0.0204317569732666,-0.005220592021942139,-0.01012498140335083,XArbitraryZVertical,-0.3028958236061644,0.08446261690525578,-0.5403439046939105,0.7804797230700865,-0.1954931020736694,0.564085841178894,-0.8022403717041016,42030.4940715,stationary,2,2020-03-09 10:46:15.545 +0100,605439974.5382657,0,44259.23,100.3879
2020-03-09 10:46:17.034 +0100,42031.98242550001,-0.2294464111328125,0.5133209228515625,-0.8775482177734375,42031.9774005,-1.295421562731109,-0.2439368833194183,-0.5974031165547193,-0.06279262155294418,-0.002092261798679829,-0.5891125798225403,-0.04017263650894165,-0.1278842091560364,-0.09785830974578857,XArbitraryZVertical,-0.3030931027208081,0.08350964604317675,-0.5438088873830266,0.7780953968531237,-0.199692502617836,0.5624972581863403,-0.8023214340209961,42030.4940715,stationary,2,2020-03-09 10:46:15.545 +0100,605439974.5382657,0,44259.23,100.3879
2020-03-09 10:46:17.050 +0100,42031.9974995,-0.2021026611328125,0.7517547607421875,-0.7463836669921875,42031.9924755,-1.30502877655687,-0.2504830253627786,-0.5944366034361892,0.1121688261628151,-0.1025202572345734,-0.5524448752403259,0.002232000231742859,0.07353067398071289,-0.007237553596496582,XArbitraryZVertical,-0.3033942276221652,0.08152859568292127,-0.546949666359279,0.7759838030258787,-0.2053530067205429,0.5600420832633972,-0.8026100397109985,42030.4940715,stationary,2,2020-03-09 10:46:15.545 +0100,605439974.5382657,0,44259.23,100.3879
2020-03-09 10:46:17.064 +0100,42032.0125745,-0.2171173095703125,0.5414886474609375,-0.8430328369140625,42032.00754950001,-1.315760544630348,-0.2573152031526042,-0.5918698833334647,-0.01293476577848196,-0.03611619770526886,-0.6869803667068481,0.009129717946052551,0.1937471628189087,0.05615901947021484,XArbitraryZVertical,-0.3038995058544497,0.07973180792267551,-0.5504195179837384,0.7735154481332766,-0.2111968696117401,0.5579138398170471,-0.8025758862495422,42030.4940715,stationary,2,2020-03-09 10:46:15.545 +0100,605439974.5382657,0,44259.23,100.3879
2020-03-09 10:46:17.079 +0100,42032.0276485,-0.2582550048828125,0.517822265625,-0.796173095703125,42032.0226235,-1.328196886740556,-0.2650927088795993,-0.5885784266579736,0.08428969234228134,-0.08135867863893509,-0.7395361065864563,-0.01084126532077789,-0.04416418075561523,-0.03871059417724609,XArbitraryZVertical,-0.3043645621873644,0.07761287337371775,-0.5544909581848911,0.7706349609254569,-0.2179124057292938,0.555179238319397,-0.8026769161224365,42030.4940715,stationary,2,2020-03-09 10:46:15.545 +0100,605439974.5382657,0,44259.23,100.3879
2020-03-09 10:46:17.094 +0100,42032.0427225,-0.241851806640625,0.557342529296875,-0.78509521484375,42032.0376975,-1.340534541762252,-0.2734367426182066,-0.5834339233334476,0.2201499193906784,-0.1206653490662575,-0.7591308951377869,-0.03284652531147003,-0.03316354751586914,0.007363975048065186,XArbitraryZVertical,-0.3043615512566671,0.07469268177719497,-0.5586818678760086,0.7678929102326429,-0.2253706008195877,0.5508930683135986,-0.8035700917243958,42030.4940715,stationary,2,2020-03-09 10:46:15.545 +0100,605439974.5382657,0,44259.23,100.3879
2020-03-09 10:46:17.110 +0100,42032.0577965,-0.1976776123046875,0.583404541015625,-0.837310791015625,42032.0527725,-1.351996521565821,-0.2814947770455156,-0.574589335640651,0.5554962158203125,-0.1164304167032242,-0.7804202437400818,0.005423635244369507,0.02929437160491943,0.00284731388092041,XArbitraryZVertical,-0.3030319723752621,0.07059052686566597,-0.5630902463020697,0.7655833153690587,-0.2331828325986862,0.5434901118278503,-0.8063772320747375,42030.4940715,stationary,2,2020-03-09 10:46:15.545 +0100,605439974.5382657,0,44259.23,100.3879
2020-03-09 10:46:17.124 +0100,42032.0728715,-0.1783599853515625,0.5340728759765625,-0.8309173583984375,42032.0678465,-1.361942053911079,-0.2886069120235398,-0.5616657781771652,0.7079390287399292,-0.1243101805448532,-0.7624571919441223,0.04325395822525024,0.05071806907653809,-0.0259782075881958,XArbitraryZVertical,-0.300085865470529,0.0653168996428954,-0.5676316895958641,0.7638562290242962,-0.2408910542726517,0.5325968265533447,-0.8113643527030945,42030.4940715,stationary,2,2020-03-09 10:46:15.545 +0100,605439974.5382657,0,44259.23,100.3879
2020-03-09 10:46:17.140 +0100,42032.0879455,-0.2111968994140625,0.500091552734375,-0.8098297119140625,42032.0829205,-1.371106193625087,-0.2953207992004824,-0.5488612421906456,0.6326421499252319,-0.1221237778663635,-0.7293628454208374,0.06321974098682404,-0.005248188972473145,-0.003531217575073242,XArbitraryZVertical,-0.2971482604020343,0.06007990064381134,-0.5719162146781548,0.7622368913739893,-0.2482975870370865,0.5217160582542419,-0.8161866068840027,42030.4940715,stationary,2,2020-03-09 10:46:15.545 +0100,605439974.5382657,0,44259.23,100.3879
2020-03-09 10:46:17.155 +0100,42032.10301950001,-0.236663818359375,0.5009918212890625,-0.8412628173828125,42032.0979945,-1.38037578899878,-0.3018285918907425,-0.5375985787957958,0.4807001054286957,-0.1186119168996811,-0.7251770496368408,0.04418051242828369,-0.0120694637298584,0.01025199890136719,XArbitraryZVertical,-0.2947463795045692,0.05539476579829541,-0.5760537522684572,0.7604063987459003,-0.2553344368934631,0.5120747685432434,-0.8201119899749756,42030.4940715,stationary,2,2020-03-09 10:46:15.545 +0100,605439974.5382657,0,44259.23,100.3879
2020-03-09 10:46:17.170 +0100,42032.1180935,-0.2539520263671875,0.5297088623046875,-0.844329833984375,42032.1130695,-1.390001992603638,-0.3087663668687183,-0.5273758512667749,0.5111897587776184,-0.1488986611366272,-0.7216154336929321,0.0249684751033783,-0.001902759075164795,-0.02065187692642212,XArbitraryZVertical,-0.2928754979515288,0.05090510133845139,-0.5801153670862135,0.7583526261846578,-0.2625951170921326,0.5032674670219421,-0.8232652544975281,42030.4940715,stationary,2,2020-03-09 10:46:15.545 +0100,605439974.5382657,0,44259.23,100.3879
2020-03-09 10:46:17.185 +0100,42032.1331685,-0.2647552490234375,0.53253173828125,-0.8676605224609375,42032.12814350001,-1.398667609977239,-0.3153407889520233,-0.5153588543363563,0.7191914319992065,-0.1486901342868805,-0.719601035118103,0.01595151424407959,0.03677874803543091,-0.0171477198600769,XArbitraryZVertical,-0.2903371947411953,0.04581194260872309,-0.5841126461290083,0.7565831446120649,-0.269858181476593,0.4928471148014069,-0.8272111415863037,42030.4940715,stationary,2,2020-03-09 10:46:15.545 +0100,605439974.5382657,0,44259.23,100.3879
2020-03-09 10:46:17.200 +0100,42032.1482425,-0.28277587890625,0.4983367919921875,-0.8353424072265625,42032.1432175,-1.405986617994248,-0.3212526800577031,-0.5001072744412952,0.9463452696800232,-0.1666717976331711,-0.7221167087554932,0.01210197806358337,0.03848111629486084,-0.02914643287658691,XArbitraryZVertical,-0.2865403441203646,0.0396995381601934,-0.5881400649935683,0.7552547293918901,-0.2770851850509644,0.4795196652412415,-0.8326371312141418,42030.4940715,stationary,2,2020-03-09 10:46:15.545 +0100,605439974.5382657,0,44259.23,100.3879
2020-03-09 10:46:17.215 +0100,42032.1633165,-0.31512451171875,0.4663238525390625,-0.8206787109375,42032.1582915,-1.412098312814671,-0.3267273425536738,-0.4817979686356152,1.128154873847961,-0.1859548687934875,-0.7426257729530334,0.001681894063949585,0.03488540649414062,0.003913700580596924,XArbitraryZVertical,-0.2816003942837445,0.03255202034839384,-0.5921822718574642,0.7542953902682163,-0.2844098508358002,0.463373214006424,-0.8392831683158875,42030.4940715,stationary,2,2020-03-09 10:46:15.545 +0100,605439977.1065689,0,44259.25,100.3864
2020-03-09 10:46:17.230 +0100,42032.1783905,-0.3152313232421875,0.4345550537109375,-0.8004302978515625,42032.1733665,-1.417721610181787,-0.33229287378463,-0.4612314728842145,1.217901110649109,-0.2200483381748199,-0.773297131061554,-0.02647614479064941,0.00622868537902832,0.03347349166870117,XArbitraryZVertical,-0.275933473384929,0.02452832472073705,-0.5963124052001415,0.7534391182967154,-0.2921239137649536,0.4450512230396271,-0.8465181589126587,42030.4940715,stationary,2,2020-03-09 10:46:15.545 +0100,605439977.1065689,0,44259.25,100.3864
2020-03-09 10:46:17.245 +0100,42032.1934655,-0.315460205078125,0.4248199462890625,-0.8211669921875,42032.1884405,-1.423270612673219,-0.3381158814325319,-0.4401252455627215,1.240330696105957,-0.2316733300685883,-0.7705972194671631,-0.01508307456970215,0.00843048095703125,0.05302053689956665,XArbitraryZVertical,-0.2701858274442229,0.01618251034909132,-0.6004234197212026,0.7524822180636762,-0.3000977039337158,0.4260527789592743,-0.8534755110740662,42030.4940715,stationary,2,2020-03-09 10:46:15.545 +0100,605439977.1065689,0,44259.25,100.3864
2020-03-09 10:46:17.260 +0100,42032.2085395,-0.2708282470703125,0.3466796875,-0.813262939453125,42032.2035145,-1.427950556928004,-0.3436080150060307,-0.4175443952276388,1.358793258666992,-0.2454622834920883,-0.7621399760246277,0.003704816102981567,0.007271558046340942,0.03250622749328613,XArbitraryZVertical,-0.2638541016619989,0.007324013531493884,-0.6044138210048746,0.7516721700583304,-0.3079436123371124,0.405517041683197,-0.8606547713279724,42030.4940715,stationary,2,2020-03-09 10:46:15.545 +0100,605439977.1065689,0,44259.25,100.3864
2020-03-09 10:46:17.275 +0100,42032.22361350001,-0.2792205810546875,0.2688751220703125,-0.8175506591796875,42032.2185885,-1.431810633007396,-0.3488024037761505,-0.3945514992468337,1.311863422393799,-0.2377994209527969,-0.7182563543319702,0.04473882913589478,-0.037779301404953,0.05429303646087646,XArbitraryZVertical,-0.2573090959377035,-0.001697504509426645,-0.6081486088004214,0.7509622892819071,-0.3155138492584229,0.3843941986560822,-0.8675782680511475,42030.4940715,stationary,2,2020-03-09 10:46:15.545 +0100,605439977.1065689,0,44259.25,100.3864
2020-03-09 10:46:17.290 +0100,42032.2386875,-0.295257568359375,0.2551727294921875,-0.8148040771484375,42032.2336635,-1.435548540842983,-0.3538196091817848,-0.3736775377587645,1.139628052711487,-0.2475602477788925,-0.6628192663192749,0.03951570391654968,-0.1143097579479218,0.05404102802276611,XArbitraryZVertical,-0.2514738807964486,-0.009994797795312487,-0.6115516351708621,0.750110342745027,-0.3225729167461395,0.3650416433811188,-0.8733220100402832,42030.4940715,stationary,2,2020-03-09 10:46:15.545 +0100,605439977.1065689,0,44259.25,100.3864
2020-03-09 10:46:17.305 +0100,42032.2537615,-0.3524932861328125,0.260955810546875,-0.8547821044921875,42032.24873750001,-1.439387237772191,-0.3587131534706329,-0.3564575802786111,0.7950347661972046,-0.2043105214834213,-0.5778769254684448,0.03379884362220764,-0.09384280443191528,0.06266462802886963,XArbitraryZVertical,-0.2469104433060532,-0.01704569214847294,-0.614522597817749,0.7490704152402259,-0.3290009498596191,0.3489567041397095,-0.8774893283843994,42030.4940715,stationary,2,2020-03-09 10:46:15.545 +0100,605439977.1065689,0,44259.25,100.3864
2020-03-09 10:46:17.320 +0100,42032.2688365,-0.3566741943359375,0.266998291015625,-0.92694091796875,42032.2638115,-1.444163021275771,-0.3635111736173628,-0.3447340199965772,0.5060358643531799,-0.2492745518684387,-0.5476905703544617,-0.03859567642211914,-0.07146275043487549,-0.01983124017715454,XArbitraryZVertical,-0.2442902826628331,-0.02214030171159444,-0.617162829614579,0.7476242946706945,-0.3346390128135681,0.337946355342865,-0.8796641230583191,42030.4940715,stationary,2,2020-03-09 10:46:15.545 +0100,605439977.1065689,0,44259.25,100.3864
2020-03-09 10:46:17.336 +0100,42032.2839105,-0.32452392578125,0.3217010498046875,-0.933502197265625,42032.2788855,-1.449998253769207,-0.3699050212604509,-0.3360929186395664,0.3058011531829834,-0.3327390551567078,-0.5357939004898071,-0.01531723141670227,-0.06285831332206726,-0.04676461219787598,XArbitraryZVertical,-0.2432889766225532,-0.02668796871008855,-0.6196202940339604,0.7457673504628116,-0.3412995934486389,0.3298011422157288,-0.8801964521408081,42030.4940715,stationary,2,2020-03-09 10:46:15.545 +0100,605439977.1065689,0,44259.25,100.3864
2020-03-09 10:46:17.351 +0100,42032.2989845,-0.2694244384765625,0.270050048828125,-0.9605255126953125,42032.29395950001,-1.456214513651962,-0.3775804476297708,-0.3293169957033864,0.2449461966753006,-0.4278693199157715,-0.5197086334228516,0.04304221272468567,-0.00681602954864502,-0.07333880662918091,XArbitraryZVertical,-0.2433761873167463,-0.03104858155759513,-0.6218314081351958,0.7437267635955482,-0.3488612473011017,0.3233968019485474,-0.8796080350875854,42030.4940715,stationary,2,2020-03-09 10:46:15.545 +0100,605439977.1065689,0,44259.25,100.3864
2020-03-09 10:46:17.366 +0100,42032.3140585,-0.2814483642578125,0.281646728515625,-0.9855804443359375,42032.3090345,-1.462150566493593,-0.3869842082073549,-0.3234797862958286,0.1932899206876755,-0.5582882761955261,-0.4609710276126862,0.08845928311347961,-0.04787108302116394,-0.08252418041229248,XArbitraryZVertical,-0.2443556806129417,-0.03576875675925362,-0.6236073674522978,0.7417038666581894,-0.3578236699104309,0.317867785692215,-0.878021776676178,42030.4940715,stationary,2,2020-03-09 10:46:15.545 +0100,605439977.1065689,0,44259.25,100.3864
2020-03-09 10:46:17.381 +0100,42032.3291335,-0.344024658203125,0.3281707763671875,-1.053756713867188,42032.3241085,-1.467906434730611,-0.3979606877752101,-0.3189899073480325,0.1018293127417564,-0.6665036082267761,-0.4372247755527496,0.07215219736099243,-0.02710017561912537,-0.1387413144111633,XArbitraryZVertical,-0.2463226319193869,-0.04063334619433318,-0.6249492965589039,0.7396704557490508,-0.3679888844490051,0.3136075735092163,-0.8753482103347778,42030.4940715,stationary,2,2020-03-09 10:46:15.545 +0100,605439977.1065689,0,44259.25,100.3864
2020-03-09 10:46:17.396 +0100,42032.34420750001,-0.3977508544921875,0.3833770751953125,-1.031356811523438,42032.3391825,-1.473198934472066,-0.4105080499938102,-0.3143219536019677,0.2259587943553925,-0.7778831720352173,-0.4317941963672638,0.03556215763092041,0.0189470648765564,-0.1817833185195923,XArbitraryZVertical,-0.2487363669745516,-0.04618196333439754,-0.6259361010906824,0.7376999925718005,-0.3795230090618134,0.3091717064380646,-0.8719949126243591,42030.4940715,stationary,2,2020-03-09 10:46:15.545 +0100,605439977.1065689,0,44259.25,100.3864
2020-03-09 10:46:17.411 +0100,42032.3592815,-0.42608642578125,0.3097991943359375,-0.9317626953125,42032.3542565,-1.477685402961873,-0.4247128048334093,-0.3068688122428451,0.4493834972381592,-0.9210371971130371,-0.462779313325882,-0.005668967962265015,0.04371452331542969,-0.1364811658859253,XArbitraryZVertical,-0.2507116267748723,-0.05336563619980048,-0.6267592840851587,0.7358454637282255,-0.3928093910217285,0.302075207233429,-0.8685916066169739,42030.4940715,stationary,2,2020-03-09 10:46:15.545 +0100,605439977.1065689,0,44259.25,100.3864
2020-03-09 10:46:17.426 +0100,42032.3743555,-0.401458740234375,0.3423309326171875,-0.85479736328125,42032.36933150001,-1.480459960920945,-0.4399732847825267,-0.2964951015589746,0.629397451877594,-0.9774456024169922,-0.4425078630447388,-0.01868689060211182,0.0175800621509552,-0.06650042533874512,XArbitraryZVertical,-0.2519881258854653,-0.0621250125522262,-0.6271868867591559,0.7343560855106276,-0.4073310494422913,0.2921700477600098,-0.8652849197387695,42030.4940715,stationary,2,2020-03-09 10:46:15.545 +0100,605439977.1065689,0,44259.25,100.3864
2020-03-09 10:46:17.441 +0100,42032.3894305,-0.41253662109375,0.3207855224609375,-0.7944183349609375,42032.3844055,-1.48204277135323,-0.4547963732578384,-0.2844042319919919,0.711966872215271,-0.938664436340332,-0.4318807721138,0.01249384880065918,0.05396181344985962,0.01881009340286255,XArbitraryZVertical,-0.2525164854493755,-0.07144237434329766,-0.627452956647865,0.7330989164636609,-0.4216330945491791,0.2805856764316559,-0.8622628450393677,42030.4940715,stationary,2,2020-03-09 10:46:15.545 +0100,605439977.1065689,0,44259.25,100.3864
2020-03-09 10:46:17.456 +0100,42032.4045045,-0.4492340087890625,0.2722930908203125,-0.737945556640625,42032.3994795,-1.483126689313444,-0.4682547785220827,-0.2720590803891764,0.675392746925354,-0.8203895688056946,-0.3997834622859955,0.02226608991622925,0.05202493071556091,0.06509411334991455,XArbitraryZVertical,-0.2525236959961088,-0.08039745307498214,-0.6277446120372348,0.73191841683222,-0.4347295463085175,0.2687153518199921,-0.8595360517501831,42030.4940715,stationary,2,2020-03-09 10:46:15.545 +0100,605439977.1065689,0,44259.25,100.3864
2020-03-09 10:46:17.490 +0100,42032.4195785,-0.4295806884765625,0.258880615234375,-0.7281494140625,42032.41455350001,-1.483789875347895,-0.4794923168582722,-0.2611849886685383,0.5925804972648621,-0.6803308129310608,-0.3739285171031952,-0.01760596036911011,-0.002806365489959717,0.1288583278656006,XArbitraryZVertical,-0.252331852625108,-0.08808723636874699,-0.6279759932203285,0.7309003361280847,-0.4456826746463776,0.2582255303859711,-0.8571385741233826,42030.4940715,stationary,2,2020-03-09 10:46:15.545 +0100,605439977.1065689,0,44259.25,100.3864
2020-03-09 10:46:17.491 +0100,42032.4346525,-0.4684295654296875,0.176971435546875,-0.7489166259765625,42032.4296285,-1.48459203440425,-0.4892165565968109,-0.2509860143088625,0.5417500734329224,-0.5866692662239075,-0.3435775339603424,0.02570644021034241,0.0104796290397644,0.1268706917762756,XArbitraryZVertical,-0.2519092915284393,-0.0949708474311869,-0.6283643321136164,0.7298495905950345,-0.4552105069160461,0.248359203338623,-0.8550444841384888,42030.4940715,stationary,2,2020-03-09 10:46:15.545 +0100,605439977.1065689,0,44259.25,100.3864
2020-03-09 10:46:17.502 +0100,42032.4497265,-0.47698974609375,0.18377685546875,-0.8442230224609375,42032.4447025,-1.485476715049696,-0.4978763690470113,-0.2420500579906226,0.4344645142555237,-0.5324603319168091,-0.3097763061523438,0.00470241904258728,-0.06244191527366638,0.07754045724868774,XArbitraryZVertical,-0.2515970758038639,-0.1010235278277161,-0.6287550689433937,0.7288072286715718,-0.4636392295360565,0.2396934181451797,-0.8529863357543945,42030.4940715,stationary,2,2020-03-09 10:46:15.545 +0100,605439977.1065689,0,44259.25,100.3864
2020-03-09 10:46:17.517 +0100,42032.46480150001,-0.483001708984375,0.23333740234375,-0.8921051025390625,42032.4597765,-1.486081807874922,-0.5058775688840285,-0.2340316158868436,0.5178236961364746,-0.533207893371582,-0.2734014093875885,-0.005544960498809814,-0.0481632798910141,0.006655216217041016,XArbitraryZVertical,-0.251384157068441,-0.1065567233396534,-0.6290092963319091,0.7278729344910845,-0.4713654518127441,0.2319011092185974,-0.850903332233429,42030.4940715,stationary,2,2020-03-09 10:46:15.545 +0100,605439977.1065689,0,44259.25,100.3864
2020-03-09 10:46:17.532 +0100,42032.4798755,-0.4578399658203125,0.268951416015625,-0.8823699951171875,42032.4748505,-1.484848860871233,-0.5139924151023338,-0.2237635848809339,0.7247484922409058,-0.5715018510818481,-0.2521208524703979,0.01242482662200928,0.04417493939399719,-0.03180569410324097,XArbitraryZVertical,-0.2503327224644583,-0.1131104723073086,-0.628874181773515,0.7273628664932218,-0.4794002771377563,0.2219009399414062,-0.8490790724754333,42030.4940715,stationary,2,2020-03-09 10:46:15.545 +0100,605439977.1065689,0,44259.25,100.3864
2020-03-09 10:46:17.547 +0100,42032.4949495,-0.400054931640625,0.2375335693359375,-0.936920166015625,42032.48992450001,-1.481779997569921,-0.5222415296303735,-0.2109117643525513,0.995863676071167,-0.6346046328544617,-0.2508587837219238,0.03001269698143005,0.05956460535526276,-0.03489822149276733,XArbitraryZVertical,-0.2483136783503238,-0.1207956537359827,-0.6283915121523121,0.7272363653565582,-0.4877704083919525,0.2093515396118164,-0.8474974632263184,42030.4940715,stationary,2,2020-03-09 10:46:15.545 +0100,605439977.1065689,0,44259.25,100.3864
2020-03-09 10:46:17.562 +0100,42032.5100235,-0.418212890625,0.2733612060546875,-0.86212158203125,42032.5049995,-1.476047491058063,-0.5311757437510852,-0.1939540806389237,1.296421766281128,-0.6788801550865173,-0.2406475692987442,0.09886372089385986,0.08757689595222473,-0.05868935585021973,XArbitraryZVertical,-0.2448912967310956,-0.130405284622082,-0.6273847642522954,0.7276063189450003,-0.4970495402812958,0.192740336060524,-0.8460454344749451,42030.4940715,stationary,2,2020-03-09 10:46:15.545 +0100,605439977.1065689,0,44259.25,100.3864
2020-03-09 10:46:17.577 +0100,42032.5250985,-0.45721435546875,0.193084716796875,-0.8271942138671875,42032.5200735,-1.468464729546049,-0.5400534329451429,-0.1742187132972321,1.431852340698242,-0.6859687566757202,-0.2456279844045639,0.08827078342437744,0.0999932736158371,-0.01744985580444336,XArbitraryZVertical,-0.2402975197131051,-0.1410963373018838,-0.6260620909617377,0.7282823125202901,-0.5063982605934143,0.1733387261629105,-0.8446978330612183,42030.4940715,stationary,2,2020-03-09 10:46:15.545 +0100,605439977.1065689,0,44259.25,100.3864
2020-03-09 10:46:17.592 +0100,42032.5401725,-0.5197296142578125,0.21966552734375,-0.7315521240234375,42032.53514750001,-1.459984022655532,-0.5487935392403642,-0.1533338442506934,1.510878443717957,-0.6631288528442383,-0.2363330870866776,0.03526288270950317,0.05184565484523773,0.05239260196685791,XArbitraryZVertical,-0.2351062940981298,-0.1521599816462085,-0.6245646002072496,0.7290344611974395,-0.5155378580093384,0.1527336984872818,-0.8431447148323059,42030.4940715,stationary,2,2020-03-09 10:46:15.545 +0100,605439977.1065689,0,44259.25,100.3864
2020-03-09 10:46:17.607 +0100,42032.5552465,-0.5745086669921875,0.200927734375,-0.653228759765625,42032.5502215,-1.450645224437639,-0.5576448935357963,-0.1314366051361572,1.574789047241211,-0.6747947931289673,-0.244966521859169,0.004983782768249512,0.08858497440814972,0.1096062064170837,XArbitraryZVertical,-0.2294258431990243,-0.1636191894821807,-0.6228560086245333,0.729823800990385,-0.5246248841285706,0.1310584843158722,-0.8411850929260254,42030.4940715,stationary,2,2020-03-09 10:46:15.545 +0100,605439977.1065689,0,44259.25,100.3864
2020-03-09 10:46:17.622 +0100,42032.5703205,-0.6336212158203125,0.060546875,-0.7033538818359375,42032.5652965,-1.441414101476059,-0.5660699057168357,-0.110224483974563,1.455325603485107,-0.6049399375915527,-0.2254988849163055,-0.08563530445098877,0.03132219612598419,0.1815632581710815,XArbitraryZVertical,-0.2237560757698826,-0.1746040713744933,-0.6211392293974705,0.7305015089451892,-0.5330644249916077,0.1100014224648476,-0.8388932943344116,42030.4940715,stationary,2,2020-03-09 10:46:15.545 +0100,605439977.1065689,0,44259.25,100.3864
2020-03-09 10:46:17.637 +0100,42032.58539550001,-0.5885009765625,0.1043548583984375,-0.762908935546875,42032.5803705,-1.432510094455467,-0.5738647105749574,-0.09024422102314082,1.426687002182007,-0.5493124127388,-0.2201380729675293,-0.0928574800491333,-0.02959005534648895,0.1330103278160095,XArbitraryZVertical,-0.2182578390705817,-0.1848448867225235,-0.6194522021973846,0.7310778040322311,-0.5406726002693176,0.09012177586555481,-0.8363917469978333,42030.4940715,stationary,2,2020-03-09 10:46:15.545 +0100,605439977.1065689,0,44259.25,100.3864
2020-03-09 10:46:17.652 +0100,42032.6004695,-0.538360595703125,0.1224822998046875,-0.8211517333984375,42032.5954445,-1.423389214322667,-0.581203219918722,-0.07021196227733649,1.489411950111389,-0.5326010584831238,-0.2230744361877441,-0.02452665567398071,0.03313593566417694,0.04646867513656616,XArbitraryZVertical,-0.2124860821770214,-0.1948794226555277,-0.617732690090423,0.7316269041283234,-0.5476772785186768,0.07015428692102432,-0.8337433338165283,42030.4940715,stationary,2,2020-03-09 10:46:15.545 +0100,605439977.1065689,0,44259.25,100.3864
2020-03-09 10:46:17.668 +0100,42032.6155435,-0.58026123046875,0.0452423095703125,-0.8230438232421875,42032.61051850001,-1.413081183806569,-0.5886984536298651,-0.04870460631373233,1.643944978713989,-0.5400121212005615,-0.20662622153759,0.01635336875915527,0.07378879189491272,0.009497642517089844,XArbitraryZVertical,-0.2060143573613267,-0.2054730021907978,-0.6157273447715147,0.7322694614690597,-0.5546205639839172,0.04868535324931145,-0.83067786693573,42030.4940715,stationary,2,2020-03-09 10:46:15.545 +0100,605439977.1065689,0,44259.25,100.3864
2020-03-09 10:46:17.682 +0100,42032.6306175,-0.6204071044921875,0.023040771484375,-0.8307342529296875,42032.6255935,-1.401622219763864,-0.5959419972122936,-0.02623228117960601,1.63082754611969,-0.4659435749053955,-0.2115482091903687,-0.04144060611724854,0.009349822998046875,0.01166296005249023,XArbitraryZVertical,-0.1988789309873952,-0.2162856683014519,-0.6134264407860054,0.7330589688057324,-0.5610954761505127,0.02622927352786064,-0.8273353576660156,42030.4940715,stationary,2,2020-03-09 10:46:15.545 +0100,605439977.1065689,0,44259.25,100.3864
2020-03-09 10:46:17.697 +0100,42032.6456915,-0.6461334228515625,0.03924560546875,-0.854339599609375,42032.6406675,-1.39122523751385,-0.6026116573301434,-0.004832160464048958,1.488207221031189,-0.4358559846878052,-0.2530843615531921,-0.05352234840393066,0.018207848072052,-0.00691533088684082,XArbitraryZVertical,-0.1919558099557754,-0.2263376091795715,-0.6114329346144129,0.7335351790407548,-0.5667893886566162,0.004832141567021608,-0.8238484859466553,42030.4940715,stationary,2,2020-03-09 10:46:15.545 +0100,605439977.1065689,0,44259.25,100.3864
2020-03-09 10:46:17.713 +0100,42032.6607665,-0.63018798828125,-0.043731689453125,-0.86767578125,42032.65574150001,-1.382853398923911,-0.6087114517459348,0.01468066836992284,1.262705445289612,-0.3794979155063629,-0.3093677461147308,-0.08171927928924561,0.03325259685516357,-0.0398709774017334,XArbitraryZVertical,-0.1856863629437319,-0.2353126138732884,-0.610009361995101,0.7335101230831609,-0.571749210357666,-0.01468014065176249,-0.8202971220016479,42030.4940715,stationary,2,2020-03-09 10:46:15.545 +0100,605439977.1065689,0,44259.25,100.3864
2020-03-09 10:46:17.728 +0100,42032.6758405,-0.5876617431640625,-0.0476226806640625,-0.8348388671875,42032.6708155,-1.377238242768506,-0.614338332274485,0.03113711202379568,0.9579413533210754,-0.3504324555397034,-0.3399339020252228,-0.05395257472991943,-0.0125943124294281,-0.05094766616821289,XArbitraryZVertical,-0.180661156745576,-0.242862291637087,-0.6092883588219308,0.7329031265659778,-0.5761385560035706,-0.03113208152353764,-0.816758930683136,42030.4940715,stationary,2,2020-03-09 10:46:15.545 +0100,605439977.1065689,0,44259.25,100.3864
2020-03-09 10:46:17.743 +0100,42032.6909145,-0.43505859375,-0.0355682373046875,-0.8252410888671875,42032.6858895,-1.37428065992161,-0.6198019664002093,0.04491727767706759,0.7659445405006409,-0.3723692893981934,-0.3908028900623322,0.05913013219833374,0.0170777440071106,-0.0244138240814209,XArbitraryZVertical,-0.1768654741583807,-0.2492636302582526,-0.6092540104561518,0.7317074141233947,-0.5802881121635437,-0.04490217566490173,-0.8131725192070007,42030.4940715,stationary,2,2020-03-09 10:46:15.545 +0100,605439977.1065689,0,44259.25,100.3864
2020-03-09 10:46:17.758 +0100,42032.70598850001,-0.51763916015625,-0.0312652587890625,-0.80694580078125,42032.7009645,-1.372889807401707,-0.6254080580238952,0.0570738192847122,0.6804066896438599,-0.3590777516365051,-0.3974438011646271,0.1495147347450256,0.02148428559303284,-0.01586902141571045,XArbitraryZVertical,-0.1738954429491019,-0.2550652483137011,-0.6095997798151899,0.7301301154258205,-0.5844748616218567,-0.05704283714294434,-0.809404194355011,42030.4940715,stationary,2,2020-03-09 10:46:15.545 +0100,605439977.1065689,0,44259.25,100.3864
2020-03-09 10:46:17.773 +0100,42032.7210635,-0.57379150390625,-0.0641632080078125,-0.75164794921875,42032.7160385,-1.372126481393523,-0.6309345169181129,0.06851629739588441,0.610676109790802,-0.3725765347480774,-0.4096678197383881,0.06944942474365234,0.02307935059070587,0.007850289344787598,XArbitraryZVertical,-0.1712395392500833,-0.2605494870367585,-0.6101031171611025,0.7283989656991052,-0.5885155200958252,-0.06846269965171814,-0.8055819869041443,42030.4940715,stationary,2,2020-03-09 10:46:15.545 +0100,605439977.1065689,0,44259.25,100.3864
2020-03-09 10:46:17.788 +0100,42032.7361375,-0.7519073486328125,-0.126983642578125,-0.6748199462890625,42032.73111250001,-1.371331762417185,-0.6360854632813713,0.07946912408502366,0.6470274329185486,-0.2715926766395569,-0.3572570979595184,0.01848429441452026,0.01523570716381073,0.05020725727081299,XArbitraryZVertical,-0.1686424714039613,-0.265735654045008,-0.6105736038866875,0.7267352203370824,-0.5921761989593506,-0.07938550412654877,-0.8018885850906372,42030.4940715,stationary,2,2020-03-09 10:46:15.545 +0100,605439977.1065689,0,44259.25,100.3864
2020-03-09 10:46:17.803 +0100,42032.7512115,-0.6730499267578125,-0.1236114501953125,-0.7165374755859375,42032.7461865,-1.370166751258974,-0.6384786401636655,0.09088148620437182,0.5748645067214966,-0.005683326628059149,-0.5972461700439453,-0.1994913220405579,-0.06308260560035706,0.1216009855270386,XArbitraryZVertical,-0.1649777751905619,-0.2700696193895221,-0.6111876927158946,0.7254614206614751,-0.5935149788856506,-0.09075643122196198,-0.7996894717216492,42030.4940715,stationary,2,2020-03-09 10:46:15.545 +0100,605439977.1065689,0,44259.25,100.3864
2020-03-09 10:46:17.818 +0100,42032.7662855,-0.7864532470703125,-0.1714630126953125,-0.72955322265625,42032.7612615,-1.370154360751852,-0.6373581384401651,0.1023500404340864,0.5777580142021179,0.2057370692491531,-0.3737147152423859,-0.08099019527435303,-0.02142277359962463,0.08289366960525513,XArbitraryZVertical,-0.1603668452549676,-0.2730385376118208,-0.612498772949765,0.7242772011274887,-0.5919601917266846,-0.1021714359521866,-0.7994648814201355,42030.4940715,stationary,2,2020-03-09 10:46:15.545 +0100,605439977.1065689,0,44259.25,100.3864
2020-03-09 10:46:17.833 +0100,42032.7813595,-0.6549835205078125,-0.086700439453125,-0.7072601318359375,42032.77633550001,-1.369334649547075,-0.6333838224871493,0.1130140390656459,0.6136897802352905,0.3462986350059509,-0.3893117904663086,-0.1095092296600342,0.01281705498695374,0.06069576740264893,XArbitraryZVertical,-0.1550623273671229,-0.2747944344317582,-0.6136310936973165,0.7238095878034287,-0.5880998373031616,-0.1127736195921898,-0.800887405872345,42030.4940715,stationary,2,2020-03-09 10:46:15.545 +0100,605439977.1065689,0,44259.25,100.3864
2020-03-09 10:46:17.848 +0100,42032.7964345,-0.62744140625,-0.104705810546875,-0.7483062744140625,42032.7914095,-1.369181482830319,-0.626969232903993,0.1237437444315966,0.5589621067047119,0.5056930780410767,-0.4274541139602661,-0.07267856597900391,0.03674858808517456,0.09632396697998047,XArbitraryZVertical,-0.1490641020487919,-0.2756289675561239,-0.6151582346419902,0.7234561297535752,-0.5822069644927979,-0.1234281808137894,-0.8036171197891235,42030.4940715,stationary,2,2020-03-09 10:46:15.545 +0100,605439977.1065689,0,44259.25,100.3864
2020-03-09 10:46:17.863 +0100,42032.8115085,-0.49639892578125,-0.0806732177734375,-0.6876373291015625,42032.8064835,-1.369393120391944,-0.6186624006933601,0.1351943382378845,0.6425718665122986,0.5591877102851868,-0.474207729101181,0.001874923706054688,0.05115695297718048,0.06936538219451904,XArbitraryZVertical,-0.1422498173323995,-0.2759607522955308,-0.6169728514995459,0.7231563100271448,-0.5746540427207947,-0.1347828805446625,-0.8072212934494019,42030.4940715,stationary,2,2020-03-09 10:46:15.545 +0100,605439977.1065689,0,44259.25,100.3864
2020-03-09 10:46:17.878 +0100,42032.82658250001,-0.50994873046875,-0.2074127197265625,-0.7135162353515625,42032.8215575,-1.369583011417637,-0.6095214905982427,0.1470575757944246,0.6342618465423584,0.6511041522026062,-0.4293211102485657,0.06999248266220093,0.06587959825992584,0.1234031319618225,XArbitraryZVertical,-0.1350032832520913,-0.2761123066509236,-0.6188081653812666,0.7229194332248079,-0.5662961602210999,-0.1465281099081039,-0.8110722303390503,42030.4940715,stationary,2,2020-03-09 10:46:15.545 +0100,605439977.1065689,0,44259.25,100.3864
2020-03-09 10:46:17.894 +0100,42032.84165766667,-0.56390380859375,-0.2599334716796875,-0.79864501953125,42032.8366325,-1.369829395494621,-0.599186139116309,0.1566722271295756,0.3673481047153473,0.7242841720581055,-0.3176960051059723,0.05264008045196533,-0.08974549174308777,0.07312631607055664,XArbitraryZVertical,-0.1282221159332489,-0.2751705387558668,-0.6204620072329455,0.723095489060673,-0.5570630431175232,-0.1560320556163788,-0.8156805038452148,42030.4940715,stationary,2,2020-03-09 10:46:15.545 +0100,605439977.1065689,0,44259.25,100.3864
2020-03-09 10:46:17.909 +0100,42032.85673266667,-0.5113067626953125,-0.3110198974609375,-0.8744354248046875,42032.85170766667,-1.371017344631779,-0.5877832885037965,0.1622198594285751,0.1809638738632202,0.7512478828430176,-0.2120361775159836,-0.01657426357269287,-0.09839694201946259,0.02257144451141357,XArbitraryZVertical,-0.1227543840009993,-0.2725951540100983,-0.622099457742684,0.7236127587875492,-0.5472375154495239,-0.1615093201398849,-0.8212465047836304,42030.4940715,stationary,2,2020-03-09 10:46:15.545 +0100,605439977.1065689,0,44259.25,100.3864
2020-03-09 10:46:17.924 +0100,42032.87180666667,-0.5162811279296875,-0.4310760498046875,-0.9691314697265625,42032.86678166667,-1.3720720815238,-0.5764968825500907,0.1641298716084183,-0.08279555290937424,0.7153067588806152,-0.04723859578371048,0.03013443946838379,-0.2122956365346909,-0.08035910129547119,XArbitraryZVertical,-0.1186633084386015,-0.2690053927944588,-0.623326705578933,0.7245817367963606,-0.5377647876739502,-0.163393959403038,-0.827110230922699,42030.4940715,stationary,2,2020-03-09 10:46:15.545 +0100,605439977.1065689,0,44259.25,100.3864
2020-03-09 10:46:17.939 +0100,42032.88688066667,-0.6759796142578125,-0.2774505615234375,-1.127899169921875,42032.88185566667,-1.373963360859984,-0.5653171378867902,0.1610888377420219,-0.3281813263893127,0.7234832048416138,0.03514549136161804,0.01255613565444946,-0.2706559598445892,-0.1356732845306396,XArbitraryZVertical,-0.1165747142860722,-0.2639454874302656,-0.6244150046355903,0.7258435256064353,-0.5287482738494873,-0.1603930443525314,-0.8334862589836121,42030.4940715,stationary,2,2020-03-09 10:46:15.545 +0100,605439977.1065689,0,44259.25,100.3864
2020-03-09 10:46:17.954 +0100,42032.90195466667,-0.519683837890625,-0.029754638671875,-1.0963134765625,42032.89693066667,-1.375303087719082,-0.5547769024009129,0.158286609033831,-0.05621305108070374,0.6180375218391418,-0.002766867633908987,-0.1224440336227417,-0.0325935035943985,-0.2804930806159973,XArbitraryZVertical,-0.1145139812944982,-0.2592116567154816,-0.6252803643436049,0.7271315220493847,-0.5201686024665833,-0.1576264649629593,-0.8393917083740234,42030.4940715,stationary,2,2020-03-09 10:46:15.545 +0100,605439977.1065689,0,44259.25,100.3864
2020-03-09 10:46:17.990 +0100,42032.91702966667,-0.470550537109375,-0.100616455078125,-1.029281616210938,42032.91200466667,-1.375248199567743,-0.5473601576219562,0.1595898043948513,0.1486924141645432,0.3786153197288513,-0.07547089457511902,-0.005775749683380127,0.1291854530572891,-0.2532894611358643,XArbitraryZVertical,-0.1116952795923605,-0.2569026107855468,-0.6257847987561046,0.72795493616644,-0.5138214826583862,-0.1589132398366928,-0.8430504202842712,42030.4940715,stationary,2,2020-03-09 10:46:15.545 +0100,605439977.1065689,0,44259.25,100.3864
2020-03-09 10:46:17.992 +0100,42032.93210366667,-0.5548095703125,-0.17218017578125,-1.061630249023438,42032.92707866667,-1.375261935523811,-0.5428343003945181,0.1620099125102568,0.1060452610254288,0.2535174190998077,-0.08337453007698059,0.02824282646179199,0.01922427117824554,-0.1863017082214355,XArbitraryZVertical,-0.1093661618882459,-0.2559712741381922,-0.6262314110230759,0.728252585976551,-0.5098005533218384,-0.1613021194934845,-0.8450354933738708,42030.4940715,stationary,2,2020-03-09 10:46:15.545 +0100,605439977.1065689,0,44259.25,100.3864
2020-03-09 10:46:17.999 +0100,42032.94717766667,-0.591461181640625,-0.0363616943359375,-1.090774536132812,42032.94215266667,-1.375330202806984,-0.5391435158981759,0.1644434579489565,0.1638641208410263,0.2387537509202957,-0.09827724099159241,-0.04824906587600708,-0.008449211716651917,-0.2150841355323792,XArbitraryZVertical,-0.1072989824289059,-0.2553447738081984,-0.6266459204533673,0.7284234938998342,-0.5064752101898193,-0.1637033224105835,-0.8465719223022461,42030.4940715,stationary,2,2020-03-09 10:46:15.545 +0100,605439977.1065689,0,44259.25,100.3864
2020-03-09 10:46:18.014 +0100,42032.96225166667,-0.8087158203125,0.009063720703125,-1.130096435546875,42032.95722766667,-1.375585985591118,-0.5356500633117114,0.16736948636451,0.1234209463000298,0.2379214614629745,-0.128008171916008,-0.1447337865829468,0.1520451456308365,-0.2603660821914673,XArbitraryZVertical,-0.1051300229333478,-0.2549262370630857,-0.627149498632648,0.7284529514000478,-0.5032680034637451,-0.1665891706943512,-0.8479205965995789,42030.4940715,stationary,2,2020-03-09 10:46:15.545 +0100,605439977.1065689,0,44259.25,100.3864
2020-03-09 10:46:18.029 +0100,42032.97732566667,-0.9796295166015625,0.0198974609375,-1.13671875,42032.97230166667,-1.376623130401396,-0.5310926926984864,0.1698393125632358,0.1075407788157463,0.3548262119293213,-0.1583852469921112,-0.3094431757926941,0.1781162470579147,-0.2802737951278687,XArbitraryZVertical,-0.1028976365227309,-0.2539450584975744,-0.6279510760317218,0.7284237750508423,-0.4991886019706726,-0.1690239757299423,-0.8498479723930359,42030.4940715,stationary,2,2020-03-09 10:46:15.545 +0100,605439977.1065689,0,44259.25,100.3864
2020-03-09 10:46:18.044 +0100,42032.99240066667,-1.116500854492188,-0.1015167236328125,-1.0845947265625,42032.98737566667,-1.378118349628269,-0.5245540032823258,0.1728680228130646,0.1685250401496887,0.4890196919441223,-0.2012864500284195,-0.5354851484298706,0.1458685249090195,-0.2755060195922852,XArbitraryZVertical,-0.0998860388507563,-0.2523873441172947,-0.6290515170089362,0.7284349048040855,-0.4933624267578125,-0.1720083355903625,-0.8526468276977539,42030.4940715,stationary,2,2020-03-09 10:46:15.545 +0100,605439977.1065689,0,44259.25,100.3864
2020-03-09 10:46:18.059 +0100,42033.00747466667,-1.139190673828125,-0.0163421630859375,-0.9527587890625,42033.00244966667,-1.378249305996784,-0.5158290805807531,0.1784927982034193,0.5117868185043335,0.6686456799507141,-0.1795949339866638,-0.6309996843338013,0.07605971395969391,-0.2285552024841309,XArbitraryZVertical,-0.09502643206708951,-0.2508747132226527,-0.6299288566701846,0.7288494362219724,-0.4854195713996887,-0.1775465160608292,-0.8560637235641479,42030.4940715,stationary,2,2020-03-09 10:46:15.545 +0100,605439977.1065689,0,44259.25,100.3864
2020-03-09 10:46:18.074 +0100,42033.02254866667,-1.034072875976562,-0.0930938720703125,-0.868621826171875,42033.01752366667,-1.373763340503911,-0.5049223717933772,0.1916624184432784,1.259567379951477,0.855336606502533,-0.1846712827682495,-0.6470630168914795,0.175203412771225,-0.07299715280532837,XArbitraryZVertical,-0.08603037861858413,-0.2510095723019165,-0.6296910196784596,0.7301247179948748,-0.4748817086219788,-0.1904911398887634,-0.8591859340667725,42030.4940715,stationary,2,2020-03-09 10:46:15.545 +0100,605439977.1065689,0,44259.25,100.3864
2020-03-09 10:46:18.089 +0100,42033.03762266667,-0.9285736083984375,-0.1531219482421875,-0.7784271240234375,42033.03259866667,-1.366146262868023,-0.4929633264763461,0.2115874775163789,1.45590341091156,0.9296779632568359,-0.2128749638795853,-0.57131028175354,0.1169538199901581,-0.007356762886047363,XArbitraryZVertical,-0.07371358811965183,-0.2528281891099227,-0.6286653513235981,0.7317267331656925,-0.4626846611499786,-0.2100122421979904,-0.8612884283065796,42030.4940715,stationary,2,2020-03-09 10:46:15.545 +0100,605439977.1065689,0,44259.25,100.3864
2020-03-09 10:46:18.104 +0100,42033.05269766667,-0.85321044921875,-0.4313812255859375,-0.737152099609375,42033.04767266667,-1.359237702746991,-0.4803177150495512,0.2331285475068851,1.495056390762329,0.9134731888771057,-0.3650373220443726,-0.4542323648929596,0.01400531828403473,0.09196031093597412,XArbitraryZVertical,-0.06061408918177116,-0.2547492830228967,-0.6278328903458055,0.7329763930120841,-0.4495614469051361,-0.2310225665569305,-0.862857460975647,42030.4940715,stationary,2,2020-03-09 10:46:15.545 +0100,605439977.1065689,0,44259.25,100.3864
2020-03-09 10:46:18.119 +0100,42033.06777166667,-0.7724761962890625,-0.518585205078125,-0.444732666015625,42033.06274666667,-1.354298740783209,-0.469428672840009,0.2567507459596466,1.520323157310486,0.7641790509223938,-0.4612695872783661,-0.4155887067317963,-0.177399218082428,0.1254177093505859,XArbitraryZVertical,-0.04747967929298589,-0.2577774333474643,-0.6275836771188315,0.7330995726953643,-0.4375479817390442,-0.253939151763916,-0.8625929355621338,42030.4940715,stationary,2,2020-03-09 10:46:15.545 +0100,605439977.1065689,0,44259.25,100.3864
2020-03-09 10:46:18.135 +0100,42033.08284566667,-0.881134033203125,-0.5509185791015625,-0.5818023681640625,42033.07782066667,-1.353032534991789,-0.4569259153856889,0.2757206344512605,0.738483726978302,0.9496699571609497,-0.5336387157440186,-0.3723829090595245,-0.2467413246631622,0.4140616655349731,XArbitraryZVertical,-0.0360766681878334,-0.2587275819807605,-0.6282954925228057,0.7328049763795825,-0.4245273470878601,-0.2722404301166534,-0.8635170459747314,42033.07004366667,unknown,2,2020-03-09 10:46:18.121 +0100,605439977.1065689,0,44259.25,100.3864
2020-03-09 10:46:18.150 +0100,42033.09791966667,-0.9535675048828125,-0.5726470947265625,-0.846435546875,42033.09289566667,-1.35964349158878,-0.4393519127645246,0.2838559056226629,-0.1197225600481033,1.138741254806519,-0.7231521606445312,-0.4727336168289185,-0.2708119451999664,0.286986231803894,XArbitraryZVertical,-0.02825338260340977,-0.2545513184958257,-0.6313490941808417,0.7319860645937831,-0.4083315432071686,-0.2800593376159668,-0.868810772895813,42033.07004366667,unknown,2,2020-03-09 10:46:18.121 +0100,605439977.1065689,0,44259.25,100.3864
2020-03-09 10:46:18.165 +0100,42033.11299466667,-0.8710174560546875,-0.6247406005859375,-0.968475341796875,42033.10796966667,-1.374409190853422,-0.4180861373009442,0.2831389732796093,-0.7296450138092041,1.108852386474609,-0.9459004998207092,-0.5556601285934448,-0.3180091679096222,-0.04542231559753418,XArbitraryZVertical,-0.0236350007425705,-0.2463761037928686,-0.6369948659967958,0.730053223851909,-0.3898460865020752,-0.2793710231781006,-0.8774803876876831,42033.07004366667,unknown,2,2020-03-09 10:46:18.121 +0100,605439977.1065689,0,44259.25,100.3864
2020-03-09 10:46:18.180 +0100,42033.12806866667,-0.715362548828125,-0.6434783935546875,-0.91937255859375,42033.12304366667,-1.394005220188493,-0.3960936947273211,0.2787827946416267,-0.6875615119934082,1.076421737670898,-1.109472990036011,-0.500033438205719,-0.3495084345340729,-0.08153891563415527,XArbitraryZVertical,-0.02062339477851784,-0.2368478723228591,-0.6442313187992982,0.72694123115205,-0.3709214329719543,-0.2751856446266174,-0.8869554996490479,42033.07004366667,unknown,2,2020-03-09 10:46:18.121 +0100,605439977.1065689,0,44259.25,100.3864
2020-03-09 10:46:18.195 +0100,42033.14314266667,-0.548492431640625,-0.6223602294921875,-0.78155517578125,42033.13811766667,-1.413936238842713,-0.3749311013066831,0.2784772055518461,-0.3140434920787811,1.022668242454529,-1.20631217956543,-0.2965066730976105,-0.3788550198078156,0.009885549545288086,XArbitraryZVertical,-0.01620395828224943,-0.2289002573158386,-0.6516423573242041,0.7229828449226933,-0.352100282907486,-0.2748918533325195,-0.8946841955184937,42033.07004366667,unknown,2,2020-03-09 10:46:18.121 +0100,605439977.1065689,0,44259.25,100.3864
2020-03-09 10:46:18.210 +0100,42033.15821666667,-0.420501708984375,-0.54986572265625,-0.641265869140625,42033.15319266667,-1.432539950527008,-0.3546580694965688,0.282465082168744,-0.03289384394884109,0.9875836372375488,-1.198327422142029,-0.2149282693862915,-0.343589186668396,0.1190308928489685,XArbitraryZVertical,-0.01016021883402136,-0.2227001417992706,-0.6585737254087977,0.7187363369030616,-0.3335078656673431,-0.2787238955497742,-0.9006028175354004,42033.07004366667,unknown,2,2020-03-09 10:46:18.121 +0100,605439977.1065689,0,44259.25,100.3864
2020-03-09 10:46:18.225 +0100,42033.17329166667,-0.3156280517578125,-0.66131591796875,-0.55706787109375,42033.16826666667,-1.44983717839566,-0.3362284194372523,0.2881469550656673,-0.0691135972738266,0.809360146522522,-1.144407033920288,-0.06093916296958923,-0.2639631330966949,0.3111982345581055,XArbitraryZVertical,-0.00383961009402923,-0.2178120238326618,-0.6649364109707652,0.7144246992339036,-0.316326767206192,-0.2841760516166687,-0.90508633852005,42033.07004366667,unknown,2,2020-03-09 10:46:18.121 +0100,605439977.1065689,0,44259.25,100.3864
2020-03-09 10:46:18.240 +0100,42033.18836566667,-0.2903594970703125,-0.886505126953125,-0.6353912353515625,42033.18334066667,-1.468354531684148,-0.3201476649129043,0.2934607449738304,-0.008025684393942356,0.6426219344139099,-1.320114850997925,-0.01432463526725769,-0.3720002472400665,0.3515264391899109,XArbitraryZVertical,0.001511129514576972,-0.2137588708835262,-0.671604278650449,0.709402861373257,-0.301252543926239,-0.2892667353153229,-0.9086097478866577,42033.07004366667,unknown,2,2020-03-09 10:46:18.121 +0100,605439977.1065689,0,44259.25,100.3864
2020-03-09 10:46:18.255 +0100,42033.20343966667,-0.37054443359375,-0.68939208984375,-0.748016357421875,42033.19841466667,-1.487803730040115,-0.3060494217210096,0.3020386627820357,0.4650359749794006,0.4770445823669434,-1.361424446105957,-0.02179035544395447,-0.5399458408355713,0.2237367033958435,XArbitraryZVertical,0.007365199452217966,-0.2115710876709221,-0.6785082021071296,0.7034272177513261,-0.2876550257205963,-0.2974672019481659,-0.9103668332099915,42033.07004366667,unknown,2,2020-03-09 10:46:18.121 +0100,605439977.1065689,0,44259.25,100.3864
2020-03-09 10:46:18.270 +0100,42033.21851366667,-0.4602508544921875,-0.5479583740234375,-0.9035491943359375,42033.21348966667,-1.504971454161337,-0.294288252842253,0.3190418690104919,0.9922749996185303,0.3953220248222351,-1.370094299316406,-0.09507662057876587,-0.375682145357132,0.1606829166412354,XArbitraryZVertical,0.01577103283549457,-0.2130585171835177,-0.6844868793924954,0.6970185661243725,-0.2754213511943817,-0.3136569261550903,-0.9087147116661072,42033.07004366667,unknown,2,2020-03-09 10:46:18.121 +0100,605439977.1065689,0,44259.25,100.3864
2020-03-09 10:46:18.285 +0100,42033.23358866667,-0.4326934814453125,-0.4197540283203125,-0.9842681884765625,42033.22856366667,-1.5200694666766,-0.2844273393902977,0.3431817888068202,1.52771532535553,0.2610575258731842,-1.373551249504089,-0.1901168823242188,-0.1819517016410828,-0.02320986986160278,XArbitraryZVertical,0.02629861132398781,-0.2176725508414306,-0.6895173477336313,0.6902844591268144,-0.2642452716827393,-0.3364850580692291,-0.9038540720939636,42033.07004366667,unknown,2,2020-03-09 10:46:18.121 +0100,605439977.1065689,0,44259.25,100.3864
2020-03-09 10:46:18.300 +0100,42033.24866266667,-0.3939056396484375,-0.354888916015625,-0.9691162109375,42033.24363766667,-1.533709973712673,-0.2772478444075786,0.3745337516609369,1.984578490257263,0.04668065160512924,-1.414222002029419,-0.1779149174690247,-0.05385354161262512,-0.08914798498153687,XArbitraryZVertical,0.03857388313039301,-0.2257058096356275,-0.6937278151002014,0.6828693540011684,-0.2547356188297272,-0.3658386468887329,-0.8951379060745239,42033.07004366667,unknown,2,2020-03-09 10:46:18.121 +0100,605439977.1065689,0,44259.25,100.3864
2020-03-09 10:46:18.315 +0100,42033.26373666667,-0.3821563720703125,-0.43914794921875,-0.9321136474609375,42033.25871166667,-1.546911198123036,-0.2729153074232331,0.4104342424482465,2.071926355361938,-0.1462142616510391,-1.444071888923645,-0.144558385014534,0.0410580039024353,-0.07346051931381226,XArbitraryZVertical,0.05140796128708646,-0.2363300408991011,-0.6974292490334478,0.6746092973538746,-0.2471540570259094,-0.3990075290203094,-0.8830106854438782,42033.07004366667,unknown,2,2020-03-09 10:46:18.121 +0100,605439977.1065689,0,44259.25,100.3864
2020-03-09 10:46:18.331 +0100,42033.27881066667,-0.365234375,-0.5026702880859375,-0.8738861083984375,42033.27378666667,-1.561693941075159,-0.2704083765510703,0.4442219798127514,1.771409869194031,-0.3213099241256714,-1.455849766731262,-0.1409164369106293,-0.009319812059402466,-0.06200158596038818,XArbitraryZVertical,0.06250001040893916,-0.2470359596322144,-0.7014159446468811,0.6656445195184028,-0.241199254989624,-0.4297555088996887,-0.8701339960098267,42033.07004366667,unknown,2,2020-03-09 10:46:18.121 +0100,605439977.1065689,0,44259.25,100.3864
2020-03-09 10:46:18.346 +0100,42033.29388466667,-0.3804931640625,-0.45574951171875,-0.8273773193359375,42033.28886066667,-1.577167494930755,-0.2690613098909633,0.4743094384886246,1.50238311290741,-0.4316391944885254,-1.392038106918335,-0.1487477123737335,-0.02218723297119141,0.005144715309143066,XArbitraryZVertical,0.07162040724769625,-0.2570409029524766,-0.7054816938274856,0.656579090190065,-0.2364815920591354,-0.456724226474762,-0.85760098695755,42033.07004366667,unknown,2,2020-03-09 10:46:18.121 +0100,605439977.1065689,0,44259.25,100.3864
2020-03-09 10:46:18.361 +0100,42033.30895966667,-0.42047119140625,-0.306884765625,-0.811798095703125,42033.30393466667,-1.592610429152846,-0.2694949710236614,0.5003495386855097,1.445608377456665,-0.5689931511878967,-1.234784603118896,-0.146846741437912,0.0240638256072998,0.01834166049957275,XArbitraryZVertical,0.07853757192975919,-0.2663819200857251,-0.7095076456450246,0.6476660656873028,-0.2336070388555527,-0.4797322452068329,-0.8457450270652771,42033.07004366667,unknown,2,2020-03-09 10:46:18.121 +0100,605439977.1065689,0,44259.25,100.3864
2020-03-09 10:46:18.376 +0100,42033.32403366667,-0.3947296142578125,-0.17315673828125,-0.8453369140625,42033.31900866667,-1.605208771305991,-0.2737432673795649,0.5253990673618677,1.375074028968811,-0.8055469989776611,-1.063129186630249,-0.1866938769817352,0.248133659362793,0.01023620367050171,XArbitraryZVertical,0.08399313916918524,-0.2765671371707652,-0.7126203229818605,0.6392400803534706,-0.2338751554489136,-0.5015583038330078,-0.8329115509986877,42033.07004366667,unknown,2,2020-03-09 10:46:18.121 +0100,605439977.1065689,0,44259.25,100.3864
2020-03-09 10:46:18.391 +0100,42033.33910766667,-0.38323974609375,0.0596466064453125,-1.017425537109375,42033.33408266667,-1.614939062450067,-0.2818019465021326,0.5497428062451787,1.462796211242676,-0.9445450901985168,-0.8945249319076538,-0.157576248049736,0.3493996262550354,-0.02634096145629883,XArbitraryZVertical,0.08812223631022013,-0.2876129344560849,-0.7148760077657736,0.6312412144164826,-0.2371133267879486,-0.5224679708480835,-0.8190265297889709,42033.07004366667,unknown,2,2020-03-09 10:46:18.121 +0100,605439977.1065689,0,44259.25,100.3864
2020-03-09 10:46:18.406 +0100,42033.35418166667,-0.44061279296875,0.2202606201171875,-1.072067260742188,42033.34915766667,-1.620349685641508,-0.2943115985778686,0.576056918780541,1.70616888999939,-1.052528142929077,-0.6469953060150146,-0.1340875923633575,0.6566910743713379,-0.2452352046966553,XArbitraryZVertical,0.09186721233257444,-0.3004684693064116,-0.7157723498573212,0.623657762624322,-0.2432669699192047,-0.5447214245796204,-0.8025582432746887,42033.07004366667,unknown,2,2020-03-09 10:46:18.121 +0100,605439977.1065689,0,44259.25,100.3864
2020-03-09 10:46:18.421 +0100,42033.36925666667,-0.439178466796875,0.2964935302734375,-1.057342529296875,42033.36423166667,-1.618486579263341,-0.3115546181997225,0.6051137047182368,2.052069664001465,-1.131247162818909,-0.2989616096019745,-0.1884612143039703,0.7892125248908997,-0.2892602682113647,XArbitraryZVertical,0.09592759070021738,-0.3152396049388013,-0.7144239556632443,0.6172684157009781,-0.2521089613437653,-0.5688555836677551,-0.7828437685966492,42033.07004366667,unknown,2,2020-03-09 10:46:18.121 +0100,605439977.1065689,0,44259.25,100.3864
2020-03-09 10:46:18.436 +0100,42033.38433066667,-0.3614349365234375,0.2543487548828125,-0.858062744140625,42033.37930566667,-1.607107667398361,-0.3375560175302473,0.6376321127755509,2.35982871055603,-1.400875091552734,0.1165559962391853,-0.127783864736557,0.8855107426643372,-0.2578538060188293,XArbitraryZVertical,0.0996635888894328,-0.3331450185752745,-0.7103887526637549,0.6119062618105767,-0.2661072611808777,-0.5952944755554199,-0.7581631541252136,42033.07004366667,unknown,2,2020-03-09 10:46:18.121 +0100,605439977.1065689,0,44259.25,100.3864
2020-03-09 10:46:18.451 +0100,42033.39940466667,-0.3804473876953125,0.213958740234375,-0.656768798828125,42033.39437966667,-1.583982621981752,-0.3739938883385155,0.6688948486500985,2.345456123352051,-1.57909095287323,0.7279064655303955,-0.0747775137424469,0.8745732307434082,-0.1278295516967773,XArbitraryZVertical,0.1015612426158557,-0.3529105892208411,-0.703461112141562,0.6085077932981134,-0.2866089046001434,-0.6201193928718567,-0.7302788496017456,42033.07004366667,unknown,2,2020-03-09 10:46:18.121 +0100,605439977.1065689,0,44259.25,100.3864
2020-03-09 10:46:18.489 +0100,42033.41447866667,-0.338531494140625,0.22723388671875,-0.5600128173828125,42033.40945466667,-1.549304016794491,-0.4210430029504703,0.6931698976156424,1.958495497703552,-1.753362536430359,1.308913230895996,-0.05744236707687378,0.8326905369758606,0.1107447147369385,XArbitraryZVertical,0.09992684915651656,-0.372817984751164,-0.6940814481720128,0.6076778087948396,-0.314391702413559,-0.6389787793159485,-0.7020427584648132,42033.07004366667,unknown,2,2020-03-09 10:46:18.121 +0100,605439977.1065689,0,44259.25,100.3864
2020-03-09 10:46:18.491 +0100,42033.42955366667,-0.4248504638671875,0.4110870361328125,-0.7620697021484375,42033.42452866667,-1.508436568810288,-0.4742363639079209,0.7049688621503102,1.263475775718689,-1.78741991519928,1.741374135017395,0.009333491325378418,0.8753538131713867,0.1175118684768677,XArbitraryZVertical,0.0936129495184254,-0.3904445612566523,-0.683742950088821,0.6093317353143672,-0.3478061258792877,-0.6480101346969604,-0.6775793433189392,42033.07004366667,unknown,2,2020-03-09 10:46:18.121 +0100,605439977.1065689,0,44259.25,100.3864
2020-03-09 10:46:18.496 +0100,42033.44462766667,-0.5072479248046875,0.44610595703125,-0.91937255859375,42033.43960266667,-1.466316133131202,-0.5278286280657334,0.7045793177064259,0.7216455936431885,-1.69452428817749,1.992989897727966,-0.1007483303546906,1.095561742782593,-0.1534486413002014,XArbitraryZVertical,0.08366340576034309,-0.4048500488928197,-0.6732547140926951,0.6130456137929439,-0.3837295174598694,-0.6477133631706238,-0.6581937670707703,42033.07004366667,unknown,2,2020-03-09 10:46:18.121 +0100,605439977.1065689,0,44259.25,100.3864
2020-03-09 10:46:18.511 +0100,42033.45970166667,-0.40631103515625,0.6065673828125,-0.9894561767578125,42033.45467666667,-1.426190717616737,-0.579451834647109,0.693718622502942,0.3021673262119293,-1.733577132225037,2.246546983718872,-0.08616811037063599,1.085615158081055,-0.2760680317878723,XArbitraryZVertical,0.07063734100481223,-0.4163266673578985,-0.6630325722092959,0.6181182913994149,-0.4210085272789001,-0.6394007205963135,-0.6433649659156799,42033.07004366667,unknown,2,2020-03-09 10:46:18.121 +0100,605439977.1065689,0,44259.25,100.3864
2020-03-09 10:46:18.527 +0100,42033.47477566667,-0.3238525390625,0.800323486328125,-0.9366302490234375,42033.46975166667,-1.382849028461849,-0.6337018162690865,0.6788154287581298,0.6751875281333923,-1.819382786750793,2.546663522720337,0.08173298835754395,1.342242002487183,-0.3611447215080261,XArbitraryZVertical,0.05636321930681874,-0.4280459206497412,-0.6512386386916571,0.6240896841159931,-0.4608662724494934,-0.6278715133666992,-0.6271997690200806,42033.07004366667,unknown,2,2020-03-09 10:46:18.121 +0100,605439977.1065689,0,44259.25,100.3864
2020-03-09 10:46:18.542 +0100,42033.48985066667,-0.3533477783203125,0.8809814453125,-0.7937774658203125,42033.48482566667,-1.329231121906472,-0.6953493873899921,0.6653154270781926,1.404045104980469,-1.934511661529541,2.956208229064941,0.1802493333816528,1.417735576629639,-0.3326286673545837,XArbitraryZVertical,0.04305348524319711,-0.4428453815019548,-0.6356457539286349,0.6308634920642652,-0.5040164589881897,-0.6173073053359985,-0.6040687561035156,42033.07004366667,unknown,2,2020-03-09 10:46:18.121 +0100,605439977.1065689,0,44259.25,100.3864
2020-03-09 10:46:18.557 +0100,42033.50492466667,-0.4167327880859375,0.8463592529296875,-0.5939788818359375,42033.49989966667,-1.261812518582651,-0.7669452182814289,0.6531952905197523,2.054441213607788,-2.087694644927979,3.363017320632935,0.1701854467391968,1.492229580879211,-0.1511915922164917,XArbitraryZVertical,0.0312143752792225,-0.4616488792473838,-0.6150442803465869,0.6384562434498755,-0.5510887503623962,-0.60772705078125,-0.5718119740486145,42033.07004366667,unknown,2,2020-03-09 10:46:18.121 +0100,605439977.1065689,0,44259.25,100.3864
2020-03-09 10:46:18.572 +0100,42033.51999866667,-0.50616455078125,0.8134765625,-0.539093017578125,42033.51497366667,-1.186129336823735,-0.8442981209062879,0.6376980462843118,2.26518440246582,-2.107149839401245,3.661399841308594,0.1839655637741089,1.441807746887207,-0.06034910678863525,XArbitraryZVertical,0.01966876518278825,-0.4824507890196133,-0.5906455774845967,0.6465231397044254,-0.6005966663360596,-0.5953474640846252,-0.5337087512016296,42033.07004366667,unknown,2,2020-03-09 10:46:18.121 +0100,605439977.1065689,0,44259.25,100.3864
2020-03-09 10:46:18.587 +0100,42033.53507266667,-0.548004150390625,0.8124542236328125,-0.5092926025390625,42033.53004866667,-1.10747022036787,-0.9217731157873603,0.6163739599183585,2.483110666275024,-2.04352879524231,3.886299848556519,0.1124913692474365,1.395454168319702,-0.04347604513168335,XArbitraryZVertical,0.008226429329444868,-0.5033286460095282,-0.5635521328347087,0.6549820673716427,-0.6500704288482666,-0.5780801773071289,-0.4931851923465729,42033.07004366667,unknown,2,2020-03-09 10:46:18.121 +0100,605439977.1065689,0,44259.25,100.3864
2020-03-09 10:46:18.602 +0100,42033.55014766667,-0.5578460693359375,0.7567901611328125,-0.4400482177734375,42033.54512266667,-1.026333104079766,-0.998044691195085,0.5894830634405263,2.749277353286743,-1.963715195655823,4.115991592407227,0.1506890058517456,1.36847984790802,-0.05890434980392456,XArbitraryZVertical,-0.002602405569560107,-0.5241684686513386,-0.5335936374326467,0.6637156581109639,-0.6985749006271362,-0.5559313893318176,-0.4504812955856323,42033.07004366667,unknown,2,2020-03-09 10:46:18.121 +0100,605439977.1065689,0,44259.25,100.3864
2020-03-09 10:46:18.617 +0100,42033.56522166667,-0.591888427734375,0.6112060546875,-0.3564300537109375,42033.56019666667,-0.9433247853946621,-1.071556939465204,0.5565412955117105,2.955517053604126,-1.813151597976685,4.362947463989258,0.1750233173370361,1.256064414978027,-0.0090598464012146,XArbitraryZVertical,-0.01262547528350498,-0.5445980223959174,-0.5005907889550458,0.6728018347791547,-0.7454534769058228,-0.5282526016235352,-0.4065071940422058,42033.07004366667,unknown,2,2020-03-09 10:46:18.121 +0100,605439977.1065689,0,44259.25,100.3864
2020-03-09 10:46:18.632 +0100,42033.58029566667,-0.66400146484375,0.5016021728515625,-0.21588134765625,42033.57527066667,-0.8602162352085395,-1.14086364245554,0.5167880704026698,3.152203798294067,-1.750432848930359,4.599625110626221,0.1985344886779785,1.105380177497864,0.00584036111831665,XArbitraryZVertical,-0.02220498945592723,-0.5641964177034637,-0.4647151377187459,0.6820770274798624,-0.7902888059616089,-0.49409019947052,-0.3623786866664886,42033.07004366667,unknown,2,2020-03-09 10:46:18.121 +0100,605439977.1065689,0,44259.25,100.3864
2020-03-09 10:46:18.647 +0100,42033.59536966667,-0.7436065673828125,0.27191162109375,-0.074493408203125,42033.59034466667,-0.779307038470878,-1.20569945206834,0.469537798515989,3.065941095352173,-1.772604584693909,4.829975605010986,0.1285970211029053,0.8967496752738953,0.150101900100708,XArbitraryZVertical,-0.03222396837906724,-0.582890730500916,-0.4263285713675725,0.6909731203667721,-0.8329996466636658,-0.4524741470813751,-0.3184000253677368,42033.07004366667,unknown,2,2020-03-09 10:46:18.121 +0100,605439977.1065689,0,44259.25,100.3864
2020-03-09 10:46:18.662 +0100,42033.61044366667,-0.860687255859375,0.1142425537109375,0.029510498046875,42033.60541966667,-0.7071001479608011,-1.263526670970506,0.413225153546832,2.624181270599365,-1.795416831970215,5.081904888153076,0.1294772624969482,0.6735450029373169,0.2023833990097046,XArbitraryZVertical,-0.04481340778492308,-0.5995764851540318,-0.3871204090740917,0.6990260980169568,-0.8729355931282043,-0.4015651047229767,-0.2769995927810669,42033.07004366667,unknown,2,2020-03-09 10:46:18.121 +0100,605439977.1065689,0,44259.25,100.3864
2020-03-09 10:46:18.677 +0100,42033.62551866667,-0.93310546875,-0.0140228271484375,0.095855712890625,42033.62049366667,-0.6480620061889738,-1.312622595456639,0.3475840474749755,1.883325219154358,-1.766692757606506,5.288174629211426,0.01427990198135376,0.4124778807163239,0.2993507981300354,XArbitraryZVertical,-0.06148958382270635,-0.6133478218651798,-0.3484681220201894,0.7061114484268703,-0.9090381860733032,-0.3406273424625397,-0.240046963095665,42033.07004366667,unknown,2,2020-03-09 10:46:18.121 +0100,605439977.1065689,0,44259.25,100.3864
2020-03-09 10:46:18.692 +0100,42033.64059266667,-0.9727630615234375,-0.0765838623046875,0.0865478515625,42033.63556766667,-0.6057326202689477,-1.351310004833282,0.274833706951469,1.049187064170837,-1.620628952980042,5.332465171813965,0.006434440612792969,0.2574103176593781,0.3052781820297241,XArbitraryZVertical,-0.08275036019967143,-0.6231964916700706,-0.3123076605299278,0.7122095170419934,-0.9393801093101501,-0.2713868916034698,-0.2095570266246796,42033.07004366667,unknown,2,2020-03-09 10:46:18.121 +0100,605439977.1065689,0,44259.25,100.3864
2020-03-09 10:46:18.707 +0100,42033.65566666667,-1.08197021484375,-0.259521484375,0.101165771484375,42033.65064166667,-0.577953713573274,-1.381171666941441,0.1985140972929549,0.469485878944397,-1.491662263870239,5.307041168212891,-0.0298769474029541,0.07535925507545471,0.2568390369415283,XArbitraryZVertical,-0.1074087605903415,-0.6293402365534109,-0.2791003078084663,0.7172845036174448,-0.9627876281738281,-0.1972128301858902,-0.1847884505987167,42033.07004366667,unknown,2,2020-03-09 10:46:18.121 +0100,605439977.1065689,0,44259.25,100.3864
2020-03-09 10:46:18.722 +0100,42033.67074066667,-1.321441650390625,-0.5346832275390625,0.1370086669921875,42033.66571666667,-0.5580501776315459,-1.406174971942725,0.1206980632893611,0.3222863674163818,-1.399980306625366,5.315133094787598,-0.1025000810623169,-0.139095738530159,0.2637099027633667,XArbitraryZVertical,-0.1335250572926346,-0.6331096192492379,-0.247208799665536,0.7212703017727103,-0.9793034791946411,-0.1204052194952965,-0.1626865416765213,42033.07004366667,unknown,2,2020-03-09 10:46:18.121 +0100,605439977.1065689,0,44259.25,100.3864
2020-03-09 10:46:18.738 +0100,42033.68581566667,-1.533721923828125,-0.854644775390625,0.1988983154296875,42033.68079066667,-0.5413593965178322,-1.428160938624089,0.04272222780274936,0.2110070437192917,-1.304715514183044,5.22566556930542,-0.3989976644515991,-0.6156086325645447,0.2944187521934509,XArbitraryZVertical,-0.159523983638978,-0.6352486456735387,-0.2154961889992527,0.7242738244770793,-0.9889415502548218,-0.04270923137664795,-0.1420225203037262,42033.07004366667,unknown,2,2020-03-09 10:46:18.121 +0100,605439977.1065689,0,44259.25,100.3864
2020-03-09 10:46:18.753 +0100,42033.70088966667,-1.781402587890625,-1.143356323242188,0.2110748291015625,42033.69586466667,-0.5303009188846278,-1.446187695216644,-0.03277077670501503,-0.07475972920656204,-1.095168948173523,4.816259384155273,-0.5418398380279541,-0.8874151706695557,0.3229691982269287,XArbitraryZVertical,-0.1852354280942567,-0.6352778934150117,-0.1859891756807747,0.7263041894424419,-0.9917135834693909,0.03276491165161133,-0.1242196708917618,42033.07004366667,unknown,2,2020-03-09 10:46:18.121 +0100,605439977.1065689,0,44259.25,100.3864
2020-03-09 10:46:18.768 +0100,42033.71596366667,-1.809249877929688,-1.700088500976562,0.2263946533203125,42033.71093866667,-0.5261604460360887,-1.461182594817414,-0.09856284626870464,-0.3160713315010071,-0.9419973492622375,3.844652414321899,-0.832633376121521,-1.393097758293152,0.337273120880127,XArbitraryZVertical,-0.2087539855289578,-0.6340268678408464,-0.1617077081359176,0.7268302032968343,-0.9891740083694458,0.09840334206819534,-0.1088634058833122,42033.07004366667,unknown,2,2020-03-09 10:46:18.121 +0100,605439977.1065689,0,44259.25,100.3864
2020-03-09 10:46:18.783 +0100,42033.73103766667,-1.544219970703125,-2.511917114257812,0.192138671875,42033.72601366667,-0.5233126992885672,-1.473956034225559,-0.1474906498883456,-0.1028906404972076,-0.7729418277740479,2.644340515136719,-0.8245742321014404,-1.8470698595047,0.3218801617622375,XArbitraryZVertical,-0.2260769349676338,-0.6333005643607651,-0.1432027968277685,0.7261627903665475,-0.9845083355903625,0.1469564884901047,-0.09563922882080078,42033.07004366667,unknown,2,2020-03-09 10:46:18.121 +0100,605439977.1065689,0,44259.25,100.3864
2020-03-09 10:46:18.798 +0100,42033.74611266667,-1.273391723632812,-2.819381713867188,0.28662109375,42033.74108766667,-0.5249007295819301,-1.483394519634357,-0.1786825233532529,-0.5590507388114929,-0.4592504799365997,1.442440748214722,-0.445246696472168,-2.903547763824463,0.2951875925064087,XArbitraryZVertical,-0.2381015441866596,-0.6327379138562724,-0.1323244405070332,0.7248726785730868,-0.9803221821784973,0.1777332276105881,-0.08590077608823776,42033.07004366667,unknown,2,2020-03-09 10:46:18.121 +0100,605439977.1065689,0,44259.25,100.3864
2020-03-09 10:46:18.813 +0100,42033.76118666667,-0.9733428955078125,-2.472946166992188,0.378631591796875,42033.75616166667,-0.536882449717122,-1.490815677129956,-0.1914554328226979,-1.089466094970703,-0.25439453125,0.1250948011875153,-0.2946357727050781,-3.00970196723938,0.3649003505706787,XArbitraryZVertical,-0.2467925424961313,-0.6323572185145764,-0.131492433152277,0.7224454811325495,-0.9785899519920349,0.1902879327535629,-0.07843557745218277,42033.07004366667,unknown,2,2020-03-09 10:46:18.121 +0100,605439977.1065689,0,44259.25,100.3864
2020-03-09 10:46:18.828 +0100,42033.77626066667,-0.4087371826171875,-2.096481323242188,0.2564849853515625,42033.77123566667,-0.5563717368317381,-1.498854796468132,-0.1860893813914843,-1.337533473968506,-0.3501645922660828,-0.9698758721351624,0.1943791508674622,-2.570653438568115,0.41014164686203,XArbitraryZVertical,-0.2516646296266271,-0.6335184771909531,-0.1393086928641405,0.7182703407489935,-0.9801931977272034,0.1850172132253647,-0.070638507604599,42033.07004366667,unknown,2,2020-03-09 10:46:18.121 +0100,605439977.1065689,0,44259.25,100.3864
2020-03-09 10:46:18.843 +0100,42033.79133466667,-0.548187255859375,-0.6062164306640625,0.3128204345703125,42033.78631066667,-0.5777226824838234,-1.509019363852983,-0.1687275236301457,-1.310967445373535,-0.6610540747642517,-1.382676243782043,0.5753482580184937,-2.264437913894653,0.3171864748001099,XArbitraryZVertical,-0.2532678717313923,-0.6367298614269274,-0.1514899327235606,0.7123769872267401,-0.9839184880256653,0.167928084731102,-0.06086093559861183,42033.07004366667,unknown,2,2020-03-09 10:46:18.121 +0100,605439977.1065689,0,44259.25,100.3864
2020-03-09 10:46:18.858 +0100,42033.80640966667,-0.473876953125,2.214950561523438,0.07562255859375,42033.80138466667,-0.6024186780344252,-1.515012786856609,-0.1611981675729091,-1.442670345306396,0.2558301687240601,0.02261988073587418,0.3290514349937439,0.5477390885353088,0.3819891214370728,XArbitraryZVertical,-0.2590498330130745,-0.6366924637446701,-0.1620201570006738,0.7080008068289745,-0.985500156879425,0.1605009585618973,-0.05503178015351295,42033.07004366667,unknown,2,2020-03-09 10:46:18.121 +0100,605439977.1065689,0,44259.25,100.3864
2020-03-09 10:46:18.873 +0100,42033.82148366667,-2.434295654296875,0.7216339111328125,0.1531829833984375,42033.81645866667,-0.5991345642208294,-1.507296134733345,-0.1559057543253158,1.898652911186218,0.4071211516857147,-0.8659781813621521,0.5121707320213318,2.059649229049683,0.1381511092185974,XArbitraryZVertical,-0.2555858839200696,-0.6350841905968645,-0.1636214479550745,0.7103321115955269,-0.9858800768852234,0.1552749276161194,-0.06268785148859024,42033.07004366667,unknown,2,2020-03-09 10:46:18.121 +0100,605439977.1065689,0,44259.25,100.3864
2020-03-09 10:46:18.888 +0100,42033.83655766667,-3.529983520507812,-0.764251708984375,0.3478240966796875,42033.83153266667,-0.5701643984235206,-1.501777226600161,-0.1333275065460822,1.922546029090881,-0.548036515712738,-2.025815486907959,-1.882527112960815,0.1976873427629471,0.3113430738449097,XArbitraryZVertical,-0.2381932008491272,-0.6395997776419681,-0.1615345538799788,0.7127990551903425,-0.9887651205062866,0.1329328417778015,-0.06835224479436874,42033.07004366667,unknown,2,2020-03-09 10:46:18.121 +0100,605439977.1065689,0,44259.25,100.3864
2020-03-09 10:46:18.904 +0100,42033.85163125,-3.289031982421875,-0.009002685546875,-0.4263153076171875,42033.84660725,-0.5663948428957224,-1.506767804970685,-0.09745054334779286,-0.5994020104408264,-0.7993412613868713,-2.391085863113403,-2.536599159240723,-0.8615645170211792,0.4113467335700989,XArbitraryZVertical,-0.2250422697202213,-0.646154298578738,-0.1715730878109956,0.7088040655148761,-0.9932159781455994,0.09729637205600739,-0.06368120014667511,42033.07004366667,unknown,2,2020-03-09 10:46:18.121 +0100,605439977.1065689,0,44259.25,100.3864
2020-03-09 10:46:18.918 +0100,42033.86670625,-1.568466186523438,1.00640869140625,-0.0165863037109375,42033.86168125,-0.5689540905441542,-1.524403739884652,-0.06758678821958954,0.4643296301364899,-1.0814608335495,-2.017989635467529,-1.042708039283752,0.7656747102737427,0.004284083843231201,XArbitraryZVertical,-0.2171429218006166,-0.6555256826250744,-0.1804943758386374,0.7003975527510538,-0.9966433048248291,0.06753534078598022,-0.04627006128430367,42033.07004366667,unknown,2,2020-03-09 10:46:18.121 +0100,605439977.1065689,0,44259.25,100.3864
2020-03-09 10:46:18.934 +0100,42033.88178025001,-1.318222045898438,-0.137725830078125,-0.1604156494140625,42033.87675525,-0.5600928672011544,-1.539978954618797,-0.02894302247185528,0.5577546358108521,-1.233744382858276,-2.658432006835938,-0.569190502166748,0.9774649143218994,0.01404911279678345,XArbitraryZVertical,-0.2023740370173463,-0.6660667813444348,-0.1887307239581921,0.6926617602410778,-0.9991063475608826,0.02893898263573647,-0.03079958446323872,42033.07004366667,unknown,2,2020-03-09 10:46:18.121 +0100,605439977.1065689,0,44259.25,100.3864
2020-03-09 10:46:18.949 +0100,42033.89685425,-1.015548706054688,-0.531463623046875,-0.0140228271484375,42033.89182925,-0.5581507241059881,-1.558115895201424,0.01014074528251033,-0.02555272728204727,-1.151082277297974,-2.57242488861084,-0.2736899852752686,-0.1019334495067596,-0.05961614847183228,XArbitraryZVertical,-0.1900748243531911,-0.6764110010062999,-0.1994376917110895,0.6830550199928308,-0.9998680353164673,-0.01014057174324989,-0.01267943810671568,42033.07004366667,unknown,2,2020-03-09 10:46:18.121 +0100,605439977.1065689,0,44259.25,100.3864
2020-03-09 10:46:18.977 +0100,42033.91192825,-0.6623992919921875,-0.4946136474609375,0.094390869140625,42033.90690325,-0.5624202501185395,-1.573453091338725,0.04610620200973361,-0.4914615750312805,-0.8708735108375549,-2.146182060241699,-0.01644569635391235,-0.4853658676147461,-0.01684653759002686,XArbitraryZVertical,-0.1808049560927145,-0.684570330151224,-0.2116023585022319,0.6737191547406253,-0.9989337921142578,-0.04608986899256706,0.002653938252478838,42033.07004366667,unknown,2,2020-03-09 10:46:18.121 +0100,605439977.1065689,0,44259.25,100.3864
2020-03-09 10:46:18.992 +0100,42033.92700225001,-0.676300048828125,-0.1993865966796875,0.1421356201171875,42033.92197825,-0.5674302621045315,-1.584597112928568,0.07482575636828026,-0.1485220938920975,-0.6767759919166565,-1.680607557296753,0.3381571173667908,-0.2412866353988647,0.08659148216247559,XArbitraryZVertical,-0.1739423977160225,-0.690380263468253,-0.2219941627347443,0.6662114235019725,-0.9971068501472473,-0.0747559517621994,0.01376173179596663,42033.07004366667,unknown,2,2020-03-09 10:46:18.121 +0100,605439977.1065689,0,44259.25,100.3864
2020-03-09 10:46:18.994 +0100,42033.94207725,-0.851318359375,-0.3447723388671875,0.0477294921875,42033.93705225,-0.5674285517057254,-1.594011890679992,0.09756352020729396,0.003115097992122173,-0.5718082785606384,-1.360164046287537,0.3188446760177612,-0.1019612550735474,0.1188592910766602,XArbitraryZVertical,-0.1672664166811016,-0.6953944833668781,-0.2288759102554082,0.6603515515596038,-0.9949761629104614,-0.09740881621837616,0.02310308255255222,42033.07004366667,unknown,2,2020-03-09 10:46:18.121 +0100,605439977.1065689,0,44259.25,100.3864
2020-03-09 10:46:19.009 +0100,42033.95715125,-1.022750854492188,-0.2893524169921875,0.08123779296875,42033.95212625001,-0.5678958297691635,-1.601801094918163,0.1160561748594956,-0.1153890043497086,-0.4696821570396423,-1.108083963394165,0.07562077045440674,-0.2259660810232162,0.01354384422302246,XArbitraryZVertical,-0.1620508808158177,-0.6993819714307441,-0.2346439065534855,0.6553978973601533,-0.992795467376709,-0.1157958209514618,0.0307912603020668,42033.07004366667,unknown,2,2020-03-09 10:46:18.121 +0100,605439977.1065689,0,44259.25,100.3864
2020-03-09 10:46:19.024 +0100,42033.97222525,-1.1368408203125,-0.16351318359375,0.084716796875,42033.96720025,-0.5685591253106543,-1.608445000673094,0.1317644635303815,-0.01230968441814184,-0.4378784596920013,-0.9935287237167358,-0.03195387125015259,-0.1579465568065643,0.04374849796295166,XArbitraryZVertical,-0.1577443618384063,-0.7026901655396044,-0.2396460322973104,0.6510860454961304,-0.9906291365623474,-0.1313835084438324,0.03731350600719452,42033.07004366667,unknown,2,2020-03-09 10:46:18.121 +0100,605439977.1065689,0,44259.25,100.3864
2020-03-09 10:46:19.039 +0100,42033.98729925,-1.225204467773438,-0.107513427734375,0.1250762939453125,42033.98227525,-0.566599322020062,-1.615199565656384,0.1464934664932026,0.1720108538866043,-0.405067652463913,-0.9647508263587952,-0.178190290927887,0.03517033159732819,0.02442169189453125,XArbitraryZVertical,-0.1528827859185541,-0.7061044211616818,-0.243474533103425,0.6471193777799695,-0.9883138537406921,-0.1459700614213943,0.04391320049762726,42033.07004366667,unknown,2,2020-03-09 10:46:18.121 +0100,605439977.1065689,0,44259.25,100.3864
2020-03-09 10:46:19.054 +0100,42034.00237425001,-1.338699340820312,-0.118682861328125,0.0627899169921875,42033.99734925,-0.5635447907998343,-1.621190436931856,0.1608303926388676,0.1269727945327759,-0.3376513421535492,-0.9649316668510437,-0.2391957640647888,0.05265173316001892,0.07517564296722412,XArbitraryZVertical,-0.147688234827225,-0.7092598516961901,-0.2469000630090542,0.6435673989522518,-0.9858415126800537,-0.1601379364728928,0.04972270503640175,42033.07004366667,unknown,2,2020-03-09 10:46:18.121 +0100,605439977.1065689,0,44259.25,100.3864
2020-03-09 10:46:19.069 +0100,42034.01744825,-1.282806396484375,-0.161773681640625,0.1693572998046875,42034.01242325,-0.5626645590164492,-1.625202570264346,0.1755804826232525,-0.1376420557498932,-0.151898205280304,-1.00918972492218,-0.3646261692047119,0.11970154941082,0.03850173950195312,XArbitraryZVertical,-0.1428910606695818,-0.711585420480281,-0.2513285325110888,0.6403609618453494,-0.9831682443618774,-0.1746797263622284,0.0535433329641819,42033.07004366667,unknown,2,2020-03-09 10:46:18.121 +0100,605439977.1065689,0,44259.25,100.3864
2020-03-09 10:46:19.084 +0100,42034.03252225,-1.135330200195312,-0.30145263671875,0.1196441650390625,42034.02749725,-0.5666408952295123,-1.625071218384004,0.1919709622773887,-0.4748464226722717,0.0748061016201973,-1.128221869468689,-0.3024555444717407,0.02905279397964478,0.1159268617630005,XArbitraryZVertical,-0.1387482810322336,-0.7123024425625656,-0.2581547863923484,0.6377540258465202,-0.9801845550537109,-0.1907940208911896,0.0532517097890377,42033.07004366667,unknown,2,2020-03-09 10:46:18.121 +0100,605439977.1065689,0,44259.25,100.3864
2020-03-09 10:46:19.099 +0100,42034.04759625001,-0.9889678955078125,-0.276397705078125,0.06219482421875,42034.04257225,-0.5716535089267312,-1.622865061497857,0.2079502512260882,-0.1535368859767914,-0.02266407012939453,-0.8579803705215454,-0.1213675737380981,-0.09838077425956726,0.0570368766784668,XArbitraryZVertical,-0.1348323736388123,-0.7122374665874869,-0.2652842484195421,0.635737589387511,-0.9771300554275513,-0.2064547389745712,0.05092395469546318,42033.07004366667,unknown,2,2020-03-09 10:46:18.121 +0100,605439977.1065689,0,44259.25,100.3864
2020-03-09 10:46:19.114 +0100,42034.06267125,-0.9168548583984375,-0.296356201171875,-0.0397491455078125,42034.05764625,-0.5708920394908821,-1.625202485731734,0.2187014675850293,0.1000538393855095,-0.2179869562387466,-0.6316303014755249,-0.01406699419021606,-0.05939862132072449,0.008932232856750488,XArbitraryZVertical,-0.1312272490076215,-0.7136675780122808,-0.2684978193136974,0.6335352341160645,-0.9747355580329895,-0.2169622033834457,0.05308400467038155,42033.07004366667,unknown,2,2020-03-09 10:46:18.121 +0100,605439977.1065689,0,44259.25,100.3864
2020-03-09 10:46:19.130 +0100,42034.07774525,-0.9994659423828125,-0.281951904296875,0.0033111572265625,42034.07272025001,-0.5678609191279115,-1.630104354659764,0.2268216513976392,0.2326987534761429,-0.3332378566265106,-0.4776246547698975,0.03838980197906494,-0.09063175320625305,-0.09527301788330078,XArbitraryZVertical,-0.1280523441701279,-0.7158771658082546,-0.2699497669999856,0.6310701426468697,-0.9726728200912476,-0.22488172352314,0.05775503814220428,42033.07004366667,unknown,2,2020-03-09 10:46:18.121 +0100,605439977.1065689,0,44259.25,100.3864
2020-03-09 10:46:19.145 +0100,42034.09281925,-1.04864501953125,-0.28143310546875,0.0587310791015625,42034.08779425,-0.5633361705712711,-1.636485407367726,0.2333287477077602,0.2876767516136169,-0.376608282327652,-0.4282118380069733,-0.02849721908569336,-0.05069519579410553,-0.06073272228240967,XArbitraryZVertical,-0.1250906717667433,-0.7185289622689456,-0.270311901368987,0.6284901722349432,-0.9708037972450256,-0.2312173396348953,0.06386309117078781,42033.07004366667,unknown,2,2020-03-09 10:46:18.121 +0100,605439977.1065689,0,44259.25,100.3864
