loggingTime(txt),locationTimestamp_since1970(s),locationLatitude(WGS84),locationLongitude(WGS84),locationAltitude(m),locationSpeed(m/s),locationCourse(°),locationVerticalAccuracy(m),locationHorizontalAccuracy(m),locationFloor(Z),accelerometerTimestamp_sinceReboot(s),accelerometerAccelerationX(G),accelerometerAccelerationY(G),accelerometerAccelerationZ(G),motionTimestamp_sinceReboot(s),motionYaw(rad),motionRoll(rad),motionPitch(rad),motionRotationRateX(rad/s),motionRotationRateY(rad/s),motionRotationRateZ(rad/s),motionUserAccelerationX(G),motionUserAccelerationY(G),motionUserAccelerationZ(G),motionAttitudeReferenceFrame(txt),motionQuaternionX(R),motionQuaternionY(R),motionQuaternionZ(R),motionQuaternionW(R),motionGravityX(G),motionGravityY(G),motionGravityZ(G),activityTimestamp_sinceReboot(s),activity(txt),activityActivityConfidence(Z),activityActivityStartDate(txt),altimeterTimestamp_sinceReboot(s),altimeterReset(bool),altimeterRelativeAltitude(m),altimeterPressure(kPa)
2020-03-09 10:24:45.940 +0100,1583745884.999311,52.56389921746297,13.4102061601189,47.27488,0,222.8503668312302,7.155388390803227,16.88660630311029,-9999,41050.04056025,0.0322265625,-0.403472900390625,-0.934906005859375,41050.03553625,-0.0373884899385938,0.05671242160494808,0.4302936114582969,-0.07234612852334976,0.03117563761770725,0.08986261487007141,0.01084714755415916,0.006039261817932129,0.01841950416564941,XArbitraryZVertical,0.2138855175623809,0.02370469471334023,-0.01220292230912303,0.9764948208567081,0.05151508003473282,-0.4171376526355743,-0.9073821306228638,41026.18377175,unknown,2,2020-03-09 10:24:22.004 +0100,605438685.2857699,0,44260.9,100.3639
2020-03-09 10:24:45.942 +0100,1583745884.999311,52.56389921746297,13.4102061601189,47.27488,0,222.8503668312302,7.155388390803227,16.88660630311029,-9999,41050.05563325001,0.0776214599609375,-0.427764892578125,-0.93548583984375,41050.05060925,-0.03611241005020865,0.05645952410745144,0.4296965423222291,-0.01161269564181566,0.03606155887246132,0.0671621635556221,0.001617390662431717,-0.00156828761100769,-0.03414493799209595,XArbitraryZVertical,0.2135774206355142,0.02372474121779825,-0.01161630128080365,0.9765689108102309,0.05129965022206306,-0.4165949523448944,-0.9076436161994934,41026.18377175,unknown,2,2020-03-09 10:24:22.004 +0100,605438685.2857699,0,44260.9,100.3639
2020-03-09 10:24:45.945 +0100,1583745884.999311,52.56389921746297,13.4102061601189,47.27488,0,222.8503668312302,7.155388390803227,16.88660630311029,-9999,41050.07070625,0.0706024169921875,-0.42083740234375,-0.9197998046875,41050.06568225,-0.03528917258045126,0.05681370445702718,0.4291961377558449,-0.06457625329494476,0.04864220321178436,0.02635238133370876,0.02598807215690613,-0.01162099838256836,-0.0276532769203186,XArbitraryZVertical,0.2133253182295978,0.0239914176365179,-0.01118438782770948,0.9766225750124338,0.05163294449448586,-0.4161399900913239,-0.907833456993103,41026.18377175,unknown,2,2020-03-09 10:24:22.004 +0100,605438685.2857699,0,44260.9,100.3639
2020-03-09 10:24:45.946 +0100,1583745884.999311,52.56389921746297,13.4102061601189,47.27488,0,222.8503668312302,7.155388390803227,16.88660630311029,-9999,41050.08578025,0.0449371337890625,-0.4307861328125,-0.9252166748046875,41050.08075525,-0.0348485025733262,0.05715350414704033,0.4284968206152093,0.01107464078813791,0.007847781293094158,0.02733062766492367,0.006513185799121857,-0.0111735463142395,-0.01326620578765869,XArbitraryZVertical,0.2129804857466309,0.0242124256538806,-0.01094401637561031,0.9766950110589879,0.05195803567767143,-0.415503978729248,-0.9081061482429504,41026.18377175,unknown,2,2020-03-09 10:24:22.004 +0100,605438685.2857699,0,44260.9,100.3639
2020-03-09 10:24:45.947 +0100,1583745884.999311,52.56389921746297,13.4102061601189,47.27488,0,222.8503668312302,7.155388390803227,16.88660630311029,-9999,41050.10085325001,0.052337646484375,-0.4351959228515625,-0.9116058349609375,41050.09582825,-0.03525010492556605,0.05749199596440271,0.429282378658507,0.05471239611506462,0.01920562982559204,-0.05840584635734558,-0.007309973239898682,-0.01456373929977417,-0.01745522022247314,XArbitraryZVertical,0.2133707391123753,0.02432579562499554,-0.01109158919051207,0.9766053844161869,0.05224664881825447,-0.4162184000015259,-0.907762348651886,41026.18377175,unknown,2,2020-03-09 10:24:22.004 +0100,605438685.2857699,0,44260.9,100.3639
2020-03-09 10:24:45.948 +0100,1583745884.999311,52.56389921746297,13.4102061601189,47.27488,0,222.8503668312302,7.155388390803227,16.88660630311029,-9999,41050.11592625,0.069122314453125,-0.4330902099609375,-0.8997650146484375,41050.11090225,-0.03583791400049931,0.05838046421050739,0.429590080877538,-0.01472382061183453,0.045828927308321,0.01272485312074423,0.01120860874652863,-0.01796126365661621,0.002694785594940186,XArbitraryZVertical,0.2135331296858532,0.02469327298081481,-0.01127885298200388,0.9765585068176027,0.05304566770792007,-0.4164981544017792,-0.9075877070426941,41026.18377175,unknown,2,2020-03-09 10:24:22.004 +0100,605438685.2857699,0,44260.9,100.3639
2020-03-09 10:24:45.952 +0100,1583745884.999311,52.56389921746297,13.4102061601189,47.27488,0,222.8503668312302,7.155388390803227,16.88660630311029,-9999,41050.13099925,0.06170654296875,-0.4124755859375,-0.8969268798828125,41050.12597525,-0.03554860944860862,0.05902196350023331,0.4291042916356518,-0.03245562314987183,0.06565706431865692,-0.01068682875484228,0.01548202335834503,-0.01702967286109924,0.007989406585693359,XArbitraryZVertical,0.2132959553192784,0.02504313268134955,-0.0110770220566465,0.976603783061375,0.05363980308175087,-0.4160564541816711,-0.9077553749084473,41026.18377175,unknown,2,2020-03-09 10:24:22.004 +0100,605438685.2857699,0,44260.9,100.3639
2020-03-09 10:24:45.967 +0100,1583745884.999311,52.56389921746297,13.4102061601189,47.27488,0,222.8503668312302,7.155388390803227,16.88660630311029,-9999,41050.14607225001,0.0624237060546875,-0.4152069091796875,-0.8896636962890625,41050.14104825,-0.03591424589528015,0.06023069330812671,0.4288040461185151,-0.003264390863478184,0.05567196384072304,-0.01029104925692081,0.005405120551586151,0.001389414072036743,0.01608991622924805,XArbitraryZVertical,0.2131607260138179,0.02559795239032528,-0.01113163887508559,0.9766182672470841,0.05474451184272766,-0.4157834351062775,-0.9078145027160645,41026.18377175,unknown,2,2020-03-09 10:24:22.004 +0100,605438685.2857699,0,44260.9,100.3639
2020-03-09 10:24:45.982 +0100,1583745884.999311,52.56389921746297,13.4102061601189,47.27488,0,222.8503668312302,7.155388390803227,16.88660630311029,-9999,41050.16114625,0.0567779541015625,-0.414794921875,-0.9004364013671875,41050.15612125,-0.03579070500591327,0.0608145788974028,0.4286743842341983,-0.009967034682631493,0.02342028915882111,0.02219871804118156,0.007145348936319351,0.0004627704620361328,0.01817154884338379,XArbitraryZVertical,0.2130990593328135,0.02589778675163946,-0.01101125430673254,0.9766252200131917,0.05527783930301666,-0.4156655073165894,-0.9078361988067627,41026.18377175,unknown,2,2020-03-09 10:24:22.004 +0100,605438685.2857699,0,44260.9,100.3639
2020-03-09 10:24:46.001 +0100,1583745884.999311,52.56389921746297,13.4102061601189,47.27488,0,222.8503668312302,7.155388390803227,16.88660630311029,-9999,41050.17621925,0.04608154296875,-0.40850830078125,-0.9073486328125,41050.17119425,-0.03553587707079249,0.06100886573251676,0.4288557016241607,0.0266275592148304,0.02451740764081478,-0.001872898079454899,-0.003310859203338623,0.005144268274307251,0.0017891526222229,XArbitraryZVertical,0.2131853294523204,0.02601764954903942,-0.01086307379103634,0.9766048772200572,0.05544962361454964,-0.4158304035663605,-0.9077501893043518,41026.18377175,unknown,2,2020-03-09 10:24:22.004 +0100,605438685.2857699,0,44260.9,100.3639
2020-03-09 10:24:46.012 +0100,1583745884.999311,52.56389921746297,13.4102061601189,47.27488,0,222.8503668312302,7.155388390803227,16.88660630311029,-9999,41050.19129225001,0.056121826171875,-0.41448974609375,-0.9024810791015625,41050.18626825,-0.03615051056304723,0.06161313256797248,0.4289385088867503,-0.01863689720630646,0.01607989147305489,-0.06551212817430496,-0.009915012866258621,0.007401704788208008,0.0003325343132019043,XArbitraryZVertical,0.2132371276217489,0.02624619561811084,-0.01109738167167428,0.9765847097854295,0.05599601566791534,-0.4159057140350342,-0.9076821208000183,41026.18377175,unknown,2,2020-03-09 10:24:22.004 +0100,605438685.2857699,0,44260.9,100.3639
2020-03-09 10:24:46.027 +0100,1583745884.999311,52.56389921746297,13.4102061601189,47.27488,0,222.8503668312302,7.155388390803227,16.88660630311029,-9999,41050.20636525,0.051666259765625,-0.4054412841796875,-0.9001922607421875,41050.20134125,-0.03735367831448513,0.06246607788896771,0.4282191799536842,-0.08411084860563278,0.03235022351145744,-0.0885806605219841,-0.0001335181295871735,0.002459675073623657,0.00689995288848877,XArbitraryZVertical,0.2129066698463004,0.02654333949009941,-0.01160633035205139,0.9766429104238815,0.0567888580262661,-0.4152514338493347,-0.9079324007034302,41026.18377175,unknown,2,2020-03-09 10:24:22.004 +0100,605438685.2857699,0,44260.9,100.3639
2020-03-09 10:24:46.042 +0100,1583745884.999311,52.56389921746297,13.4102061601189,47.27488,0,222.8503668312302,7.155388390803227,16.88660630311029,-9999,41050.22143925,0.0662994384765625,-0.395782470703125,-0.894866943359375,41050.21641425,-0.03913739169545345,0.06365498311400913,0.4263510840521038,-0.1281518042087555,0.02013830095529556,-0.1467558145523071,-0.006251804530620575,0.008114248514175415,0.008443593978881836,XArbitraryZVertical,0.2120255929779857,0.02695815743350201,-0.01238368724916342,0.9768136287323478,0.0579175092279911,-0.4135513007640839,-0.9086368083953857,41026.18377175,unknown,2,2020-03-09 10:24:22.004 +0100,605438685.2857699,0,44260.9,100.3639
2020-03-09 10:24:46.057 +0100,1583745884.999311,52.56389921746297,13.4102061601189,47.27488,0,222.8503668312302,7.155388390803227,16.88660630311029,-9999,41050.23651225001,0.05560302734375,-0.411468505859375,-0.8963165283203125,41050.23148725,-0.0415751200885952,0.06484160636178257,0.4245688051187473,-0.08851474523544312,0.0142756886780262,-0.1489512920379639,0.01015471294522285,0.01424223184585571,0.01304513216018677,XArbitraryZVertical,0.2111960050762056,0.02730343927736975,-0.01348060002504307,0.9769693359626684,0.05904334411025047,-0.4119279086589813,-0.9093015193939209,41026.18377175,unknown,2,2020-03-09 10:24:22.004 +0100,605438685.2857699,0,44260.9,100.3639
2020-03-09 10:24:46.072 +0100,1583745884.999311,52.56389921746297,13.4102061601189,47.27488,0,222.8503668312302,7.155388390803227,16.88660630311029,-9999,41050.25158525,0.050262451171875,-0.419647216796875,-0.897735595703125,41050.24656125,-0.04394779909046538,0.0662083799970619,0.4231764047968936,-0.09238770604133606,0.03482505306601524,-0.1468609124422073,-0.004721514880657196,-0.0008057355880737305,0.0134739875793457,XArbitraryZVertical,0.2105582275139139,0.02774029302056904,-0.01452099146867171,0.977079758862161,0.06032398715615273,-0.4106587171554565,-0.9097914099693298,41026.18377175,unknown,2,2020-03-09 10:24:22.004 +0100,605438685.2857699,0,44260.9,100.3639
2020-03-09 10:24:46.087 +0100,1583745884.999311,52.56389921746297,13.4102061601189,47.27488,0,222.8503668312302,7.155388390803227,16.88660630311029,-9999,41050.26665825,0.060150146484375,-0.429168701171875,-0.903564453125,41050.26163425,-0.0458718292174448,0.06725828535353086,0.4216264360083493,-0.08198606222867966,0.005683694966137409,-0.09345704317092896,-0.006924834102392197,-0.01467067003250122,0.01282340288162231,XArbitraryZVertical,0.2098359007326086,0.02807345967210304,-0.01537959616689973,0.9772124534620515,0.06132185086607933,-0.4092449843883514,-0.9103615283966064,41026.18377175,unknown,2,2020-03-09 10:24:22.004 +0100,605438685.2857699,0,44260.9,100.3639
2020-03-09 10:24:46.103 +0100,1583745884.999311,52.56389921746297,13.4102061601189,47.27488,0,222.8503668312302,7.155388390803227,16.88660630311029,-9999,41050.28173125,0.05059814453125,-0.4159393310546875,-0.911956787109375,41050.27670725,-0.04687494254739611,0.06778960261629463,0.4206790222630491,-0.04360032081604004,0.0147187365218997,-0.04291530698537827,-0.001682188361883163,-0.02078431844711304,0.007149934768676758,XArbitraryZVertical,0.2093913943260708,0.02824201817643005,-0.01583198601661693,0.9772957062495199,0.0618317686021328,-0.4083803594112396,-0.9107152819633484,41026.18377175,unknown,2,2020-03-09 10:24:22.004 +0100,605438685.2857699,0,44260.9,100.3639
2020-03-09 10:24:46.118 +0100,1583745884.999311,52.56389921746297,13.4102061601189,47.27488,0,222.8503668312302,7.155388390803227,16.88660630311029,-9999,41050.29680525,0.0609893798828125,-0.4105987548828125,-0.908721923828125,41050.29178025,-0.04727910481726645,0.0680825951566956,0.4201213487830609,-0.0288965180516243,0.001130961813032627,-0.01816761493682861,-0.01232523843646049,-0.006095558404922485,-0.001643896102905273,XArbitraryZVertical,0.2091270386025904,0.02835129593590223,-0.01600945588074331,0.9773461926855298,0.06211408227682114,-0.4078712463378906,-0.9109241962432861,41026.18377175,unknown,2,2020-03-09 10:24:22.004 +0100,605438685.2857699,0,44260.9,100.3639
2020-03-09 10:24:46.133 +0100,1583745884.999311,52.56389921746297,13.4102061601189,47.27488,0,222.8503668312302,7.155388390803227,16.88660630311029,-9999,41050.31187825,0.067138671875,-0.4072265625,-0.9052581787109375,41050.30685425,-0.04732797136173918,0.06828593877558699,0.419679417171613,-0.03884462267160416,0.02911514975130558,0.01035979948937893,-0.001322802156209946,-0.003127008676528931,0.002368450164794922,XArbitraryZVertical,0.2089134398243507,0.02845223423113744,-0.01602053720858303,0.977388893634048,0.06231160834431648,-0.4074677228927612,-0.9110912680625916,41026.18377175,unknown,2,2020-03-09 10:24:22.004 +0100,605438685.2857699,0,44260.9,100.3639
2020-03-09 10:24:46.148 +0100,1583745884.999311,52.56389921746297,13.4102061601189,47.27488,0,222.8503668312302,7.155388390803227,16.88660630311029,-9999,41050.32695125,0.0670013427734375,-0.4009857177734375,-0.91595458984375,41050.32192725,-0.04688064265628197,0.0685554956717596,0.4188486018870898,-0.0687856450676918,0.01375263091176748,0.02882825583219528,0.0009108707308769226,-0.000437319278717041,0.005542397499084473,XArbitraryZVertical,0.2085033284088829,0.02864317271301437,-0.01578971953054529,0.9774745385583331,0.06258036196231842,-0.4067088663578033,-0.9114118814468384,41026.18377175,unknown,2,2020-03-09 10:24:22.004 +0100,605438685.2857699,0,44260.9,100.3639
2020-03-09 10:24:46.163 +0100,1583745884.999311,52.56389921746297,13.4102061601189,47.27488,0,222.8503668312302,7.155388390803227,16.88660630311029,-9999,41050.34202425,0.0635528564453125,-0.4049072265625,-0.9193115234375,41050.33700025,-0.04651602939456979,0.06811355971891511,0.418495731176865,0.02682076767086983,-0.03852575272321701,0.03325682878494263,0.004813425242900848,0.005404829978942871,-0.004372954368591309,XArbitraryZVertical,0.2083222387680672,0.02847045107272455,-0.01566431727370128,0.9775202200502711,0.06218733265995979,-0.4063864648342133,-0.9115825295448303,41026.18377175,unknown,2,2020-03-09 10:24:22.004 +0100,605438685.2857699,0,44260.9,100.3639
2020-03-09 10:24:46.178 +0100,1583745884.999311,52.56389921746297,13.4102061601189,47.27488,0,222.8503668312302,7.155388390803227,16.88660630311029,-9999,41050.35709825,0.045623779296875,-0.4054412841796875,-0.9060821533203125,41050.35207325,-0.04555170907201313,0.06726391874306922,0.4193871318639316,0.03731862455606461,-0.002447984181344509,0.08379925787448883,-0.0061064213514328,0.0007413625717163086,-0.0008065104484558105,XArbitraryZVertical,0.208737546764627,0.02814257807274359,-0.01526472144005936,0.9774474141173055,0.06138842180371284,-0.4072007834911346,-0.9112732410430908,41026.18377175,unknown,2,2020-03-09 10:24:22.004 +0100,605438685.2857699,0,44260.9,100.3639
2020-03-09 10:24:46.193 +0100,1583745884.999311,52.56389921746297,13.4102061601189,47.27488,0,222.8503668312302,7.155388390803227,16.88660630311029,-9999,41050.37217125,0.0577545166015625,-0.3914794921875,-0.9195556640625,41050.36714625001,-0.04314477952944307,0.06582839269613359,0.4204479413387005,0.1205784827470779,-0.07300423085689545,0.1961314678192139,-0.01442855224013329,0.002732336521148682,0.004845857620239258,XArbitraryZVertical,0.2092116342767222,0.02767734901849107,-0.01421873227873561,0.9773751289331801,0.06005175411701202,-0.4081694185733795,-0.9109289050102234,41026.18377175,unknown,2,2020-03-09 10:24:22.004 +0100,605438685.2857699,0,44260.9,100.3639
2020-03-09 10:24:46.208 +0100,1583745884.999311,52.56389921746297,13.4102061601189,47.27488,0,222.8503668312302,7.155388390803227,16.88660630311029,-9999,41050.38724425,0.062713623046875,-0.4139556884765625,-0.9003753662109375,41050.38222025,-0.04115295029137415,0.0635558195063711,0.4237303366762302,0.2662897408008575,-0.09705712646245956,0.04334721341729164,-0.002522457391023636,0.01298987865447998,-0.004189789295196533,XArbitraryZVertical,0.2107721775831165,0.02673115652650071,-0.01342497999373386,0.977077412338726,0.05789604410529137,-0.4111637473106384,-0.9097210764884949,41026.18377175,unknown,2,2020-03-09 10:24:22.004 +0100,605438685.2857699,0,44260.9,100.3639
2020-03-09 10:24:46.223 +0100,1583745884.999311,52.56389921746297,13.4102061601189,47.27488,0,222.8503668312302,7.155388390803227,16.88660630311029,-9999,41050.40231725,0.0598297119140625,-0.4363555908203125,-0.9023590087890625,41050.39729325,-0.04161485523615978,0.06248454405199506,0.4269872967505521,0.1270359754562378,-0.05204543843865395,-0.02769261226058006,0.005875550210475922,0.0001790523529052734,0.008064866065979004,XArbitraryZVertical,0.2123614461191374,0.02611527809844381,-0.01370667640560374,0.9767459809205147,0.0568375252187252,-0.4141304790973663,-0.9084412455558777,41026.18377175,unknown,2,2020-03-09 10:24:22.004 +0100,605438685.2857699,0,44260.9,100.3639
2020-03-09 10:24:46.238 +0100,1583745884.999311,52.56389921746297,13.4102061601189,47.27488,0,222.8503668312302,7.155388390803227,16.88660630311029,-9999,41050.41739125,0.032440185546875,-0.41253662109375,-0.9090118408203125,41050.41236625001,-0.04162779552525716,0.0619626440480919,0.4272645703741862,-0.05523626506328583,-0.02879928424954414,0.0187460295855999,-0.006079118698835373,-0.01717722415924072,0.001235425472259521,XArbitraryZVertical,0.2124934096456925,0.02585529340221827,-0.01376360417435022,0.9767233694386429,0.0563562884926796,-0.4143828451633453,-0.9083561301231384,41026.18377175,unknown,2,2020-03-09 10:24:22.004 +0100,605438685.2857699,0,44260.9,100.3639
2020-03-09 10:24:46.253 +0100,1583745884.999311,52.56389921746297,13.4102061601189,47.27488,0,222.8503668312302,7.155388390803227,16.88660630311029,-9999,41050.43246425,0.03594970703125,-0.3946075439453125,-0.8996429443359375,41050.42743925,-0.04151808287820552,0.06162017609563136,0.4264592249496376,-0.03127101063728333,-0.01148213818669319,-0.008908369578421116,-0.02362608909606934,0.00111737847328186,-0.0003046393394470215,XArbitraryZVertical,0.2120964292504199,0.02571049297852692,-0.01376030030359417,0.9768135239451127,0.05606573447585106,-0.4136497378349304,-0.9087081551551819,41026.18377175,unknown,2,2020-03-09 10:24:22.004 +0100,605438685.2857699,0,44260.9,100.3639
2020-03-09 10:24:46.268 +0100,1583745884.999311,52.56389921746297,13.4102061601189,47.27488,0,222.8503668312302,7.155388390803227,16.88660630311029,-9999,41050.44753725,0.05694580078125,-0.4099578857421875,-0.8973236083984375,41050.44251325,-0.04138308016852284,0.06135021578499524,0.4261767014710404,-0.008112199604511261,-0.02063175290822983,0.02985127456486225,-0.009395621716976166,0.01616472005844116,0.01400250196456909,XArbitraryZVertical,0.2119548972128287,0.02559673091145201,-0.01372784408396594,0.9768476642094734,0.05582758039236069,-0.4133925139904022,-0.9088398814201355,41026.18377175,unknown,2,2020-03-09 10:24:22.004 +0100,605438685.2857699,0,44260.9,100.3639
2020-03-09 10:24:46.283 +0100,1583745884.999311,52.56389921746297,13.4102061601189,47.27488,0,222.8503668312302,7.155388390803227,16.88660630311029,-9999,41050.46261025,0.056610107421875,-0.4214630126953125,-0.909881591796875,41050.45758625001,-0.04074709211451752,0.0606822871325071,0.4261208585788724,0.0002112435176968575,-0.03109211847186089,0.03814995288848877,0.001723341643810272,0.003388017416000366,0.01157540082931519,XArbitraryZVertical,0.2119149857556006,0.02533862959530826,-0.01348894148617558,0.9768663816118917,0.05522193014621735,-0.4133416712284088,-0.9088999629020691,41026.18377175,unknown,2,2020-03-09 10:24:22.004 +0100,605438685.2857699,0,44260.9,100.3639
2020-03-09 10:24:46.299 +0100,1583745884.999311,52.56389921746297,13.4102061601189,47.27488,0,222.8503668312302,7.155388390803227,16.88660630311029,-9999,41050.47768325,0.0637664794921875,-0.41619873046875,-0.9072418212890625,41050.47265925,-0.04035535482169785,0.06002570622255502,0.4261685029528959,0.009554469026625156,-0.03609686344861984,0.01217957213521004,0.003496237099170685,-0.007554888725280762,-0.0005236268043518066,XArbitraryZVertical,0.2119289033962336,0.02505881746849325,-0.01336637087618035,0.9768722805626533,0.05462396889925003,-0.4133850634098053,-0.9089164137840271,41026.18377175,unknown,2,2020-03-09 10:24:22.004 +0100,605438685.2857699,0,44260.9,100.3639
2020-03-09 10:24:46.314 +0100,1583745884.999311,52.56389921746297,13.4102061601189,47.27488,0,222.8503668312302,7.155388390803227,16.88660630311029,-9999,41050.49275725,0.06488037109375,-0.4096527099609375,-0.90777587890625,41050.48773225,-0.04019593541506823,0.0593662473360488,0.4267178934289304,0.05481268465518951,-0.04780985787510872,0.01622458174824715,0.009754881262779236,-0.002309232950210571,0.001482605934143066,XArbitraryZVertical,0.2121907699445617,0.02474648627880425,-0.01334924836628342,0.9768236717038525,0.05401108041405678,-0.413885235786438,-0.908725380897522,41026.18377175,unknown,2,2020-03-09 10:24:22.004 +0100,605438685.2857699,0,44260.9,100.3639
2020-03-09 10:24:46.329 +0100,1583745884.999311,52.56389921746297,13.4102061601189,47.27488,0,222.8503668312302,7.155388390803227,16.88660630311029,-9999,41050.50783025,0.0511627197265625,-0.4262237548828125,-0.9096527099609375,41050.50280525001,-0.03999362973363797,0.05841904383770054,0.4278051605329017,0.06943779438734055,-0.05697842687368393,0.009499997831881046,0.007422350347042084,0.0009386837482452393,-0.004379093647003174,XArbitraryZVertical,0.2127128545657505,0.02429133801281306,-0.01333311450776482,0.9767217060306749,0.05312400311231613,-0.4148747622966766,-0.9083263278007507,41026.18377175,unknown,2,2020-03-09 10:24:22.004 +0100,605438685.2857699,0,44260.9,100.3639
2020-03-09 10:24:46.344 +0100,1583745885.999301,52.56389921746297,13.4102061601189,47.27488,0,222.8503668312302,7.200301234640093,16.53421747720952,-9999,41050.52290325,0.0460205078125,-0.4315948486328125,-0.9094696044921875,41050.51787925,-0.03999408060133718,0.05760368965627626,0.4281744564277146,-0.02484343200922012,-0.04274942353367805,-0.001793402247130871,-0.001212351024150848,-0.01100865006446838,-0.001437366008758545,XArbitraryZVertical,0.2128877078592681,0.02388836535860404,-0.01341407284382028,0.9766924470729457,0.05237455293536186,-0.4152107536792755,-0.9082163572311401,41026.18377175,unknown,2,2020-03-09 10:24:22.004 +0100,605438685.2857699,0,44260.9,100.3639
2020-03-09 10:24:46.359 +0100,1583745885.999301,52.56389921746297,13.4102061601189,47.27488,0,222.8503668312302,7.200301234640093,16.53421747720952,-9999,41050.53797625,0.0494384765625,-0.410186767578125,-0.91888427734375,41050.53295225,-0.03980123361596257,0.05704775775375844,0.4274337569776109,-0.05215667933225632,-0.0218859389424324,0.0184333398938179,-0.003868263214826584,-0.01273545622825623,-0.005343496799468994,XArbitraryZVertical,0.2125200436051943,0.02364684434968388,-0.01339095442497707,0.976778721413083,0.05188716202974319,-0.4145368039608002,-0.9085521101951599,41026.18377175,unknown,2,2020-03-09 10:24:22.004 +0100,605438685.2857699,0,44260.9,100.3639
2020-03-09 10:24:46.374 +0100,1583745885.999301,52.56389921746297,13.4102061601189,47.27488,0,222.8503668312302,7.200301234640093,16.53421747720952,-9999,41050.55305025,0.0500946044921875,-0.4037933349609375,-0.9085845947265625,41050.54802525001,-0.03936818549054007,0.05655141631762196,0.4271664794404261,0.009337211959064007,-0.02217111922800541,0.03000234439969063,-0.002004493027925491,0.004111170768737793,-0.01019692420959473,XArbitraryZVertical,0.2123811422245339,0.02345382122571358,-0.01323644672597113,0.9768156565299425,0.0514424629509449,-0.4142935574054718,-0.9086883664131165,41026.18377175,unknown,2,2020-03-09 10:24:22.004 +0100,605438685.2857699,0,44260.9,100.3639
2020-03-09 10:24:46.389 +0100,1583745885.999301,52.56389921746297,13.4102061601189,47.27488,0,222.8503668312302,7.200301234640093,16.53421747720952,-9999,41050.56812325,0.060760498046875,-0.4256591796875,-0.9060821533203125,41050.56309825,-0.03894591287770125,0.05604915719762391,0.4274941196566823,0.0235704742372036,-0.02057263068854809,0.02306174673140049,0.002609916031360626,0.004485636949539185,0.005074083805084229,XArbitraryZVertical,0.2125328877110604,0.02324926393264495,-0.01307837739986159,0.9767896778697132,0.05097845196723938,-0.4145917296409607,-0.9085785150527954,41026.18377175,unknown,2,2020-03-09 10:24:22.004 +0100,605438685.2857699,0,44260.9,100.3639
2020-03-09 10:24:46.404 +0100,1583745885.999301,52.56389921746297,13.4102061601189,47.27488,0,222.8503668312302,7.200301234640093,16.53421747720952,-9999,41050.58319625,0.0570526123046875,-0.4256744384765625,-0.9097137451171875,41050.57817225,-0.0387285754421171,0.05568774635877982,0.4278469050557502,0.02122476324439049,-0.01962587609887123,0.004206566140055656,0.01011806353926659,-0.01074203848838806,0.002367615699768066,XArbitraryZVertical,0.2127002712868158,0.02309146948665755,-0.01300511342758445,0.9767579513626893,0.05064193531870842,-0.4149127602577209,-0.9084507822990417,41026.18377175,unknown,2,2020-03-09 10:24:22.004 +0100,605438685.2857699,0,44260.9,100.3639
2020-03-09 10:24:46.419 +0100,1583745885.999301,52.56389921746297,13.4102061601189,47.27488,0,222.8503668312302,7.200301234640093,16.53421747720952,-9999,41050.59826925,0.0532073974609375,-0.4193115234375,-0.903167724609375,41050.59324525001,-0.03875985821948928,0.05542058733304241,0.4281585645028146,0.01749858446419239,-0.02034791931509972,-0.002898414619266987,0.004371237009763718,-0.008307009935379028,0.0008634328842163086,XArbitraryZVertical,0.2128510662405663,0.02295380131167959,-0.01304394431605715,0.976727808683219,0.05039206519722939,-0.4151962995529175,-0.9083350896835327,41026.18377175,unknown,2,2020-03-09 10:24:22.004 +0100,605438685.2857699,0,44260.9,100.3639
2020-03-09 10:24:46.434 +0100,1583745885.999301,52.56389921746297,13.4102061601189,47.27488,0,222.8503668312302,7.200301234640093,16.53421747720952,-9999,41050.61334225001,0.0504913330078125,-0.419921875,-0.9014129638671875,41050.60831825,-0.03869043646809127,0.05500338163369929,0.4284173914081071,0.01472828723490238,-0.02971603348851204,0.01442238595336676,0.00319971889257431,-0.003875374794006348,0.005079984664916992,XArbitraryZVertical,0.2129739162031192,0.02275423892154374,-0.0130504335845665,0.9767056378345069,0.05000719055533409,-0.4154317378997803,-0.9082487225532532,41026.18377175,unknown,2,2020-03-09 10:24:22.004 +0100,605438685.2857699,0,44260.9,100.3639
2020-03-09 10:24:46.449 +0100,1583745885.999301,52.56389921746297,13.4102061601189,47.27488,0,222.8503668312302,7.200301234640093,16.53421747720952,-9999,41050.62841625,0.048553466796875,-0.4170379638671875,-0.8978424072265625,41050.62339125,-0.0383781230601337,0.0543896951712125,0.4288166461876721,0.03785791993141174,-0.03156198933720589,0.02146518230438232,-0.000307966023683548,-0.002306818962097168,0.006485939025878906,XArbitraryZVertical,0.2131613193084935,0.02248290282049137,-0.01295714482183724,0.9766722980605452,0.04944078251719475,-0.4157948791980743,-0.9081135392189026,41026.18377175,unknown,2,2020-03-09 10:24:22.004 +0100,605438685.2857699,0,44260.9,100.3639
2020-03-09 10:24:46.464 +0100,1583745885.999301,52.56389921746297,13.4102061601189,47.27488,0,222.8503668312302,7.200301234640093,16.53421747720952,-9999,41050.64348925,0.0523223876953125,-0.4282684326171875,-0.8882904052734375,41050.63846525001,-0.03796609397365891,0.05372258165943872,0.4294806391083209,0.04150431603193283,-0.03233590349555016,0.03114470839500427,-0.0002671293914318085,-0.0006349086761474609,0.01002705097198486,XArbitraryZVertical,0.2134765808346285,0.02219298491411896,-0.01281698281356024,0.976611948598617,0.04882011935114861,-0.416398674249649,-0.9078704714775085,41026.18377175,unknown,2,2020-03-09 10:24:22.004 +0100,605438685.2857699,0,44260.9,100.3639
2020-03-09 10:24:46.480 +0100,1583745885.999301,52.56389921746297,13.4102061601189,47.27488,0,222.8503668312302,7.200301234640093,16.53421747720952,-9999,41050.65856225001,0.0526275634765625,-0.4437103271484375,-0.8892822265625,41050.65353825,-0.03752386922969059,0.05315042606456032,0.429746258759282,-0.01302011962980032,-0.01989374682307243,0.02510435879230499,0.005003675818443298,-0.0185207724571228,0.02254807949066162,XArbitraryZVertical,0.2135977470102397,0.02195761348368059,-0.01265813235814393,0.9765927719500952,0.0482947900891304,-0.4166401326656342,-0.9077877402305603,41026.18377175,unknown,2,2020-03-09 10:24:22.004 +0100,605438685.2857699,0,44260.9,100.3639
2020-03-09 10:24:46.495 +0100,1583745885.999301,52.56389921746297,13.4102061601189,47.27488,0,222.8503668312302,7.200301234640093,16.53421747720952,-9999,41050.67363525,0.0529327392578125,-0.4338531494140625,-0.9017181396484375,41050.66861125,-0.03719673277397633,0.05282453274816156,0.4294033392595586,-0.02832464128732681,-0.008356149308383465,0.01499336678534746,0.004620596766471863,-0.02737745642662048,0.01866281032562256,XArbitraryZVertical,0.2134247019145905,0.02183749731357952,-0.01253829962162582,0.9766348283708667,0.04800648614764214,-0.4163283705711365,-0.9079460501670837,41026.18377175,unknown,2,2020-03-09 10:24:22.004 +0100,605438685.2857699,0,44260.9,100.3639
2020-03-09 10:24:46.525 +0100,1583745885.999301,52.56389921746297,13.4102061601189,47.27488,0,222.8503668312302,7.200301234640093,16.53421747720952,-9999,41050.68870925,0.0601348876953125,-0.4278564453125,-0.896270751953125,41050.68368425001,-0.03692532634883901,0.05257553710261755,0.4291928478786727,0.0007701655849814415,-0.01296921819448471,0.02238017693161964,0.007878582924604416,-0.01154720783233643,0.004953086376190186,XArbitraryZVertical,0.2133173968721141,0.02174735537654413,-0.012435453426085,0.9766617154552671,0.04778501763939857,-0.4161369800567627,-0.9080454707145691,41026.18377175,unknown,2,2020-03-09 10:24:22.004 +0100,605438685.2857699,0,44260.9,100.3639
2020-03-09 10:24:46.528 +0100,1583745885.999301,52.56389921746297,13.4102061601189,47.27488,0,222.8503668312302,7.200301234640093,16.53421747720952,-9999,41050.70378225001,0.06842041015625,-0.42950439453125,-0.88958740234375,41050.69875725,-0.03652236056023585,0.0521816135354292,0.4297099117633084,0.06462504714727402,-0.01563051529228687,0.03130949288606644,0.01271834224462509,-0.01124495267868042,0.01157748699188232,XArbitraryZVertical,0.2135630351429123,0.02159192097273004,-0.01227309268855015,0.9766135409084041,0.0474160835146904,-0.4166071116924286,-0.9078492522239685,41026.18377175,unknown,2,2020-03-09 10:24:22.004 +0100,605438685.2857699,0,44260.9,100.3639
2020-03-09 10:24:46.540 +0100,1583745885.999301,52.56389921746297,13.4102061601189,47.27488,0,222.8503668312302,7.200301234640093,16.53421747720952,-9999,41050.71885525,0.0711669921875,-0.435699462890625,-0.8919525146484375,41050.71383125,-0.03612614973676492,0.05178349029115472,0.4309912272449107,0.09379063546657562,-0.01952430792152882,0.02764761075377464,0.02413954585790634,-0.008676528930664062,0.01429730653762817,XArbitraryZVertical,0.2141818611990026,0.02142498012803002,-0.0121034604876031,0.9764837684254819,0.04702697321772575,-0.417771577835083,-0.9073342084884644,41026.18377175,unknown,2,2020-03-09 10:24:22.004 +0100,605438685.2857699,0,44260.9,100.3639
2020-03-09 10:24:46.555 +0100,1583745885.999301,52.56389921746297,13.4102061601189,47.27488,0,222.8503668312302,7.200301234640093,16.53421747720952,-9999,41050.73392825,0.0579986572265625,-0.452423095703125,-0.88275146484375,41050.72890425001,-0.03565345439325064,0.05135243041403015,0.4322921029889442,0.06269411742687225,-0.008014420978724957,0.03348339349031448,0.02455859631299973,-0.01674169301986694,0.01485729217529297,XArbitraryZVertical,0.2148092174350018,0.02125024194330594,-0.01190004066561583,0.9763522048720868,0.04660791903734207,-0.418953150510788,-0.9068108797073364,41026.18377175,unknown,2,2020-03-09 10:24:22.004 +0100,605438685.2857699,0,44260.9,100.3639
2020-03-09 10:24:46.570 +0100,1583745885.999301,52.56389921746297,13.4102061601189,47.27488,0,222.8503668312302,7.200301234640093,16.53421747720952,-9999,41050.74900225001,0.0422821044921875,-0.4587554931640625,-0.8825225830078125,41050.74397725,-0.03541727492554385,0.05133044630051368,0.4328358065446126,0.002598997205495834,0.01670197769999504,-0.009617569856345654,0.005226835608482361,-0.04115048050880432,0.02798217535018921,XArbitraryZVertical,0.2150719192037631,0.02125867807212289,-0.0117792589994468,0.9762957393657818,0.04657628759741783,-0.4194467663764954,-0.9065842628479004,41026.18377175,unknown,2,2020-03-09 10:24:22.004 +0100,605438685.2857699,0,44260.9,100.3639
2020-03-09 10:24:46.585 +0100,1583745885.999301,52.56389921746297,13.4102061601189,47.27488,0,222.8503668312302,7.200301234640093,16.53421747720952,-9999,41050.76407525,0.0362548828125,-0.442779541015625,-0.8921051025390625,41050.75905025,-0.03611054151151437,0.05207510346021658,0.4325715633003197,-0.02503609284758568,0.04193249717354774,-0.06804066896438599,-0.004975508898496628,-0.03954407572746277,0.02413636445999146,XArbitraryZVertical,0.2149548093796631,0.02155069278739828,-0.01204146478458764,0.9763119268518311,0.04725713655352592,-0.4192068874835968,-0.9066600203514099,41026.18377175,unknown,2,2020-03-09 10:24:22.004 +0100,605438685.2857699,0,44260.9,100.3639
2020-03-09 10:24:46.600 +0100,1583745885.999301,52.56389921746297,13.4102061601189,47.27488,0,222.8503668312302,7.200301234640093,16.53421747720952,-9999,41050.77914825,0.040771484375,-0.437652587890625,-0.8910369873046875,41050.77412425001,-0.0374124252263924,0.05342102636209205,0.4323347229446542,-0.006414415314793587,0.05660102888941765,-0.09164143353700638,-0.01286917179822922,-0.02329480648040771,0.01382559537887573,XArbitraryZVertical,0.2148617004414955,0.02207061720902739,-0.01253587956371678,0.9763145219989489,0.04848269000649452,-0.4189918339252472,-0.9066946506500244,41026.18377175,unknown,2,2020-03-09 10:24:22.004 +0100,605438685.2857699,0,44260.9,100.3639
2020-03-09 10:24:46.615 +0100,1583745885.999301,52.56389921746297,13.4102061601189,47.27488,0,222.8503668312302,7.200301234640093,16.53421747720952,-9999,41050.79422125001,0.043792724609375,-0.44378662109375,-0.8794708251953125,41050.78919725,-0.03917639846724712,0.05504910725542533,0.4319034157262678,-0.0512712374329567,0.06200004369020462,-0.1225202828645706,-0.009197767823934555,-0.01904779672622681,0.01575684547424316,XArbitraryZVertical,0.2146814189652126,0.02268124255313169,-0.01322874581930127,0.9763310600736118,0.04996873438358307,-0.4186001718044281,-0.9067949056625366,41026.18377175,unknown,2,2020-03-09 10:24:22.004 +0100,605438685.2857699,0,44260.9,100.3639
2020-03-09 10:24:46.630 +0100,1583745885.999301,52.56389921746297,13.4102061601189,47.27488,0,222.8503668312302,7.200301234640093,16.53421747720952,-9999,41050.80929425,0.031463623046875,-0.4345855712890625,-0.90399169921875,41050.80427025,-0.04138190503375193,0.05700014220625277,0.430585865454422,-0.10825165361166,0.06645236909389496,-0.1479955464601517,-0.01000643149018288,-0.02729427814483643,0.02734643220901489,XArbitraryZVertical,0.214077104695449,0.02341421424889802,-0.01411718226265012,0.9764340482431351,0.0517692044377327,-0.4174032509326935,-0.9072455167770386,41026.18377175,unknown,2,2020-03-09 10:24:22.004 +0100,605438685.2857699,0,44260.9,100.3639
2020-03-09 10:24:46.645 +0100,1583745885.999301,52.56389921746297,13.4102061601189,47.27488,0,222.8503668312302,7.200301234640093,16.53421747720952,-9999,41050.82436825,0.0106048583984375,-0.4079437255859375,-0.8621978759765625,41050.81934325,-0.04384309374834966,0.05912588672143385,0.4283609402452497,-0.1737560927867889,0.08315571397542953,-0.1661180853843689,-0.02228933572769165,-0.01920059323310852,0.004065513610839844,XArbitraryZVertical,0.2130358913374091,0.02421936626721383,-0.01512850365497636,0.9766269826233218,0.05375239998102188,-0.4153803884983063,-0.9080582857131958,41026.18377175,unknown,2,2020-03-09 10:24:22.004 +0100,605438685.2857699,0,44260.9,100.3639
2020-03-09 10:24:46.660 +0100,1583745885.999301,52.56389921746297,13.4102061601189,47.27488,0,222.8503668312302,7.200301234640093,16.53421747720952,-9999,41050.839440875,0.0175628662109375,-0.4257049560546875,-0.855987548828125,41050.834416875,-0.04637607475679083,0.06142452266975212,0.4256517513722732,-0.1916718333959579,0.08663658797740936,-0.1624439358711243,-0.04399190098047256,-0.005003839731216431,0.04532736539840698,XArbitraryZVertical,0.2117624339713818,0.02511144792232594,-0.01616778094769674,0.9768646163830339,0.05590842664241791,-0.4129144549369812,-0.9090521931648254,41026.18377175,unknown,2,2020-03-09 10:24:22.004 +0100,605438685.2857699,0,44260.9,100.3639
2020-03-09 10:24:46.676 +0100,1583745885.999301,52.56389921746297,13.4102061601189,47.27488,0,222.8503668312302,7.200301234640093,16.53421747720952,-9999,41050.85451387501,0.0172882080078125,-0.425872802734375,-0.8498687744140625,41050.849489875,-0.04874975126439298,0.06369567444624648,0.4221808265652798,-0.2607704102993011,0.09212944656610489,-0.1520824432373047,-0.04050150141119957,-0.01594957709312439,0.0543590784072876,XArbitraryZVertical,0.2101166422395708,0.02602231923571602,-0.01714953498014662,0.9771794071493221,0.05806375294923782,-0.409750759601593,-0.9103477001190186,41026.18377175,unknown,2,2020-03-09 10:24:22.004 +0100,605438685.2857699,0,44260.9,100.3639
2020-03-09 10:24:46.691 +0100,1583745885.999301,52.56389921746297,13.4102061601189,47.27488,0,222.8503668312302,7.200301234640093,16.53421747720952,-9999,41050.869586875,0.005126953125,-0.4016876220703125,-0.8328399658203125,41050.864562875,-0.05074904179629381,0.06583464432560233,0.4179588604285703,-0.2712815999984741,0.09136699885129929,-0.1257689744234085,-0.04817710816860199,-0.01585251092910767,0.07108765840530396,XArbitraryZVertical,0.2080993756897894,0.02692414372322055,-0.0179806919707603,0.9775716315597734,0.06012409925460815,-0.405895859003067,-0.9119395017623901,41026.18377175,unknown,2,2020-03-09 10:24:22.004 +0100,605438685.2857699,0,44260.9,100.3639
2020-03-09 10:24:46.706 +0100,1583745885.999301,52.56389921746297,13.4102061601189,47.27488,0,222.8503668312302,7.200301234640093,16.53421747720952,-9999,41050.884660875,0.0390167236328125,-0.3875885009765625,-0.81610107421875,41050.879635875,-0.05229828745206386,0.06765533573666385,0.4146179041194833,-0.1478060036897659,0.0674760490655899,-0.08783650398254395,-0.05674939602613449,0.001157164573669434,0.08033543825149536,XArbitraryZVertical,0.2065045192907316,0.0277072217631537,-0.01861274653308534,0.9778760657741246,0.06187568977475166,-0.4028402268886566,-0.9131763577461243,41026.18377175,unknown,2,2020-03-09 10:24:22.004 +0100,605438685.2857699,0,44260.9,100.3639
2020-03-09 10:24:46.721 +0100,1583745885.999301,52.56389921746297,13.4102061601189,47.27488,0,222.8503668312302,7.200301234640093,16.53421747720952,-9999,41050.89973387501,0.1022186279296875,-0.4110260009765625,-0.8204498291015625,41050.894708875,-0.05344422769450838,0.06861996592069022,0.4136610298213416,0.008415398187935352,-0.004496946930885315,-0.07606327533721924,0.0009370967745780945,0.01051980257034302,0.09532314538955688,XArbitraryZVertical,0.2060618996991385,0.02807640810887294,-0.01909210940396327,0.9779496650277032,0.06278294324874878,-0.4019642472267151,-0.9135004281997681,41026.18377175,unknown,2,2020-03-09 10:24:22.004 +0100,605438685.2857699,0,44260.9,100.3639
2020-03-09 10:24:46.736 +0100,1583745885.999301,52.56389921746297,13.4102061601189,47.27488,0,222.8503668312302,7.200301234640093,16.53421747720952,-9999,41050.914806875,0.0822296142578125,-0.464752197265625,-0.812591552734375,41050.909782875,-0.05494795207667318,0.0684454472350341,0.4135859607412347,-0.03815305605530739,-0.08465465903282166,-0.1164254695177078,0.03959240019321442,-0.009126037359237671,0.09309065341949463,XArbitraryZVertical,0.2060445225882394,0.02783740763496919,-0.01984683792183192,0.9779451579094092,0.06262557953596115,-0.4018955230712891,-0.9135414958000183,41026.18377175,unknown,2,2020-03-09 10:24:22.004 +0100,605438685.2857699,0,44260.9,100.3639
2020-03-09 10:24:46.751 +0100,1583745885.999301,52.56389921746297,13.4102061601189,47.27488,0,222.8503668312302,7.200301234640093,16.53421747720952,-9999,41050.929879875,0.0453338623046875,-0.457733154296875,-0.8050079345703125,41050.924855875,-0.05725421221262526,0.06782015123428507,0.4117662876017201,-0.1982785016298294,-0.1095709055662155,-0.1878230273723602,0.003706719726324081,-0.07193493843078613,0.1068429946899414,XArbitraryZVertical,0.2051804472484106,0.02732583960014756,-0.02107446369795791,0.9781155190660559,0.06210379302501678,-0.4002285897731781,-0.9143085479736328,41026.18377175,unknown,2,2020-03-09 10:24:22.004 +0100,605438685.2857699,0,44260.9,100.3639
2020-03-09 10:24:46.766 +0100,1583745885.999301,52.56389921746297,13.4102061601189,47.27488,0,222.8503668312302,7.200301234640093,16.53421747720952,-9999,41050.94495387501,0.0311431884765625,-0.43109130859375,-0.8350677490234375,41050.939928875,-0.06074463896057966,0.06745934089566258,0.4080059091865286,-0.2497696578502655,-0.123766615986824,-0.2694854140281677,-0.01654167845845222,-0.06094914674758911,0.1108171939849854,XArbitraryZVertical,0.2033851304675298,0.02686003008043508,-0.02289213783445375,0.9784625861810532,0.06187491118907928,-0.3967797160148621,-0.9158260822296143,41026.18377175,unknown,2,2020-03-09 10:24:22.004 +0100,605438685.2857699,0,44260.9,100.3639
2020-03-09 10:24:46.781 +0100,1583745885.999301,52.56389921746297,13.4102061601189,47.27488,0,222.8503668312302,7.200301234640093,16.53421747720952,-9999,41050.960026875,-0.012176513671875,-0.4209747314453125,-0.8494720458984375,41050.955001875,-0.06544274485810234,0.06736281539897639,0.4041399876257382,-0.2433254569768906,-0.1264643669128418,-0.3364198207855225,-0.04039030522108078,-0.03091606497764587,0.06960690021514893,XArbitraryZVertical,0.2015557371369108,0.02640999740678281,-0.02527681895639852,0.9787945070977696,0.06188929826021194,-0.3932281732559204,-0.9173555970191956,41026.18377175,unknown,2,2020-03-09 10:24:22.004 +0100,605438685.2857699,0,44260.9,100.3639
2020-03-09 10:24:46.796 +0100,1583745885.999301,52.56389921746297,13.4102061601189,47.27488,0,222.8503668312302,7.200301234640093,16.53421747720952,-9999,41050.975099875,-0.054351806640625,-0.4221343994140625,-0.8483428955078125,41050.970075875,-0.07090309713072669,0.06766078256533396,0.3995260731394993,-0.3331210613250732,-0.1013679429888725,-0.365400105714798,-0.07446177303791046,-0.03198882937431335,0.0696645975112915,XArbitraryZVertical,0.1993739435704732,0.02610106871518496,-0.02801168392983215,0.9791752267842017,0.06228464096784592,-0.3889817893505096,-0.9191375374794006,41026.18377175,unknown,2,2020-03-09 10:24:22.004 +0100,605438685.2857699,0,44260.9,100.3639
2020-03-09 10:24:46.811 +0100,1583745885.999301,52.56389921746297,13.4102061601189,47.27488,0,222.8503668312302,7.200301234640093,16.53421747720952,-9999,41050.990172875,-0.04229736328125,-0.429962158203125,-0.836181640625,41050.985148875,-0.07630551976747631,0.06860034717758383,0.3929760426338689,-0.4864773452281952,-0.05174682289361954,-0.3579040467739105,-0.1206951662898064,-0.03407937288284302,0.0714411735534668,XArbitraryZVertical,0.1962522337208806,0.02616687784928486,-0.03069744830679337,0.9797233939537293,0.06332149356603622,-0.3829393088817596,-0.9216006994247437,41026.18377175,unknown,2,2020-03-09 10:24:22.004 +0100,605438685.2857699,0,44260.9,100.3639
2020-03-09 10:24:46.826 +0100,1583745885.999301,52.56389921746297,13.4102061601189,47.27488,0,222.8503668312302,7.200301234640093,16.53421747720952,-9999,41051.005246875,-0.0035247802734375,-0.420562744140625,-0.8144073486328125,41051.000221875,-0.08178724383989547,0.07010448261386525,0.3846491675400365,-0.5544593334197998,-0.03366715833544731,-0.3863540589809418,-0.107226736843586,-0.0547243058681488,0.08847087621688843,XArbitraryZVertical,0.192270325899777,0.02656068949027409,-0.03341085919773636,0.9804133628442084,0.06492874026298523,-0.3752339482307434,-0.9246532917022705,41026.18377175,unknown,2,2020-03-09 10:24:22.004 +0100,605438685.2857699,0,44260.9,100.3639
2020-03-09 10:24:46.841 +0100,1583745885.999301,52.56389921746297,13.4102061601189,47.27488,0,222.8503668312302,7.200301234640093,16.53421747720952,-9999,41051.020319875,0.0351409912109375,-0.426025390625,-0.80810546875,41051.015294875,-0.08715899722220415,0.07134728984388096,0.3753903773596164,-0.601726770401001,-0.06190037727355957,-0.3474989235401154,-0.05709176510572433,-0.04061752557754517,0.1204864382743835,XArbitraryZVertical,0.1878258348835649,0.02688243171363126,-0.03612453192851946,0.9811695527146368,0.0663226842880249,-0.3666357398033142,-0.9279975891113281,41026.18377175,unknown,2,2020-03-09 10:24:22.004 +0100,605438685.2857699,0,44260.9,100.3639
2020-03-09 10:24:46.856 +0100,1583745885.999301,52.56389921746297,13.4102061601189,47.27488,0,222.8503668312302,7.200301234640093,16.53421747720952,-9999,41051.035392875,0.0574188232421875,-0.407989501953125,-0.82342529296875,41051.030368875,-0.09174207034483768,0.07186877613381576,0.3666554409154814,-0.507882297039032,-0.09953628480434418,-0.3209912180900574,-0.03189369291067123,-0.06752645969390869,0.1230155229568481,XArbitraryZVertical,0.1836130396544342,0.02693338039483015,-0.03851480148143979,0.9818743255787011,0.0670340284705162,-0.3584952056407928,-0.9311217069625854,41026.18377175,unknown,2,2020-03-09 10:24:22.004 +0100,605438685.2857699,0,44260.9,100.3639
2020-03-09 10:24:46.871 +0100,1583745885.999301,52.56389921746297,13.4102061601189,47.27488,0,222.8503668312302,7.200301234640093,16.53421747720952,-9999,41051.050465875,0.0390777587890625,-0.37896728515625,-0.8486480712890625,41051.045441875,-0.09673620033857662,0.07177786302150096,0.3598256243932375,-0.3483960330486298,-0.1445878744125366,-0.3587569892406464,-0.01088014990091324,-0.04488855600357056,0.1022944450378418,XArbitraryZVertical,0.1803262710735821,0.02661456868572635,-0.04112500992793826,0.9823861965235511,0.0671234056353569,-0.3521110415458679,-0.9335482120513916,41026.18377175,unknown,2,2020-03-09 10:24:22.004 +0100,605438685.2857699,0,44260.9,100.3639
2020-03-09 10:24:46.886 +0100,1583745885.999301,52.56389921746297,13.4102061601189,47.27488,0,222.8503668312302,7.200301234640093,16.53421747720952,-9999,41051.065538875,0.0059814453125,-0.37139892578125,-0.853179931640625,41051.060514875,-0.1023888669933683,0.07127631643778296,0.3554766491088214,-0.1906658113002777,-0.193532258272171,-0.3848607540130615,-0.02768648415803909,-0.03092652559280396,0.08645164966583252,XArbitraryZVertical,0.1782548109773335,0.02598166623390586,-0.04404255455507367,0.9826546898823484,0.06676360964775085,-0.3480372428894043,-0.9351003766059875,41026.18377175,unknown,2,2020-03-09 10:24:22.004 +0100,605438685.2857699,0,44260.9,100.3639
2020-03-09 10:24:46.902 +0100,1583745885.999301,52.56389921746297,13.4102061601189,47.27488,0,222.8503668312302,7.200301234640093,16.53421747720952,-9999,41051.080612875,-0.002471923828125,-0.4028472900390625,-0.847625732421875,41051.07558787501,-0.1086899604454869,0.07043409504422876,0.3523602666041082,-0.1968468874692917,-0.2014283537864685,-0.4268233776092529,-0.06739541888237,-0.03890052437782288,0.0858454704284668,XArbitraryZVertical,0.1767857776169704,0.02509909767284112,-0.04728213940034382,0.9827925726738442,0.06605203449726105,-0.3451140224933624,-0.9362336397171021,41026.18377175,unknown,2,2020-03-09 10:24:22.004 +0100,605438685.2857699,0,44260.9,100.3639
2020-03-09 10:24:46.917 +0100,1583745885.999301,52.56389921746297,13.4102061601189,47.27488,0,222.8503668312302,7.200301234640093,16.53421747720952,-9999,41051.095685875,0.00933837890625,-0.40887451171875,-0.851043701171875,41051.090661875,-0.1155770099945305,0.06990557397735439,0.3477838942693394,-0.3601920902729034,-0.1896695792675018,-0.4746514856815338,-0.06813936680555344,-0.06202870607376099,0.09020775556564331,XArbitraryZVertical,0.1746105005863198,0.02437447486873391,-0.05081447483251422,0.9830232690115053,0.06566683202981949,-0.3408152163028717,-0.9378341436386108,41026.18377175,unknown,2,2020-03-09 10:24:22.004 +0100,605438685.2857699,0,44260.9,100.3639
2020-03-09 10:24:46.932 +0100,1583745885.999301,52.56389921746297,13.4102061601189,47.27488,0,222.8503668312302,7.200301234640093,16.53421747720952,-9999,41051.110758875,0.0032806396484375,-0.382568359375,-0.8675384521484375,41051.105734875,-0.1233299842393426,0.06954164328812386,0.3409802012575824,-0.4606113433837891,-0.2089737355709076,-0.5521805286407471,-0.05579639971256256,-0.07043194770812988,0.08405447006225586,XArbitraryZVertical,0.1713518218041473,0.02374521960544129,-0.05480873636575653,0.983397516610928,0.06548513472080231,-0.3344110250473022,-0.9401494264602661,41026.18377175,unknown,2,2020-03-09 10:24:22.004 +0100,605438685.2857699,0,44260.9,100.3639
2020-03-09 10:24:46.947 +0100,1583745885.999301,52.56389921746297,13.4102061601189,47.27488,0,222.8503668312302,7.200301234640093,16.53421747720952,-9999,41051.125831875,-0.02581787109375,-0.349609375,-0.8786773681640625,41051.12080787501,-0.1320048654913366,0.06916618464600814,0.3332709193517592,-0.4630396366119385,-0.2211044430732727,-0.5954521298408508,-0.06202834844589233,-0.05542939901351929,0.07517886161804199,XArbitraryZVertical,0.1676541347196153,0.02308999235177731,-0.0592795552858007,0.9837909668660192,0.06530837714672089,-0.3271357119083405,-0.9427179098129272,41026.18377175,unknown,2,2020-03-09 10:24:22.004 +0100,605438685.2857699,0,44260.9,100.3639
2020-03-09 10:24:46.962 +0100,1583745885.999301,52.56389921746297,13.4102061601189,47.27488,0,222.8503668312302,7.200301234640093,16.53421747720952,-9999,41051.140905875,-0.0399932861328125,-0.3394012451171875,-0.873992919921875,41051.135880875,-0.1411711761766471,0.06862835507957869,0.3262379981984026,-0.3842571377754211,-0.2411131411790848,-0.6211270689964294,-0.097138911485672,-0.01841279864311218,0.06631642580032349,XArbitraryZVertical,0.1642843361154375,0.02232113608114501,-0.06399228387664824,0.9840819257492749,0.06495751440525055,-0.3204817175865173,-0.945024847984314,41026.18377175,unknown,2,2020-03-09 10:24:22.004 +0100,605438685.2857699,0,44260.9,100.3639
2020-03-09 10:24:46.977 +0100,1583745885.999301,52.56389921746297,13.4102061601189,47.27488,0,222.8503668312302,7.200301234640093,16.53421747720952,-9999,41051.155978875,-0.0140228271484375,-0.367034912109375,-0.8707427978515625,41051.150953875,-0.1512099824825912,0.06803740587184046,0.3206337912389027,-0.2827808260917664,-0.2610397040843964,-0.6876165270805359,-0.1045140027999878,-0.02423009276390076,0.07284665107727051,XArbitraryZVertical,0.161619033221874,0.02142964590563208,-0.06910738180187725,0.984197224761183,0.06452013552188873,-0.3151681125164032,-0.9468401074409485,41026.18377175,unknown,2,2020-03-09 10:24:22.004 +0100,605438685.2857699,0,44260.9,100.3639
2020-03-09 10:24:46.992 +0100,1583745885.999301,52.56389921746297,13.4102061601189,47.27488,0,222.8503668312302,7.200301234640093,16.53421747720952,-9999,41051.171051875,0.017425537109375,-0.4187164306640625,-0.86700439453125,41051.16602787501,-0.1621216538566277,0.06726382632105761,0.3156005925121534,-0.3054936528205872,-0.2966912090778351,-0.7255319356918335,-0.06624391674995422,-0.07103341817855835,0.076649010181427,XArbitraryZVertical,0.1592305471010035,0.02038148404022437,-0.07465403651578498,0.9842036666828289,0.06389346718788147,-0.3103874623775482,-0.9484604597091675,41026.18377175,unknown,2,2020-03-09 10:24:22.004 +0100,605438685.2857699,0,44260.9,100.3639
2020-03-09 10:24:47.023 +0100,1583745885.999301,52.56389921746297,13.4102061601189,47.27488,0,222.8503668312302,7.200301234640093,16.53421747720952,-9999,41051.186124875,0.0304107666015625,-0.42889404296875,-0.86785888671875,41051.181100875,-0.1735797556832237,0.06610385434549496,0.3096975872784263,-0.378658652305603,-0.3180140852928162,-0.7750813961029053,-0.04548822343349457,-0.1139427721500397,0.08334070444107056,XArbitraryZVertical,0.1563964685829997,0.01916605363604714,-0.08051953054227771,0.9842201386748399,0.06291317194700241,-0.3047706186771393,-0.9503456354141235,41026.18377175,unknown,2,2020-03-09 10:24:22.004 +0100,605438685.2857699,0,44260.9,100.3639
2020-03-09 10:24:47.026 +0100,1583745885.999301,52.56389921746297,13.4102061601189,47.27488,0,222.8503668312302,7.200301234640093,16.53421747720952,-9999,41051.201198875,0.0421142578125,-0.39263916015625,-0.895477294921875,41051.196173875,-0.185811135792527,0.06479410341775929,0.3031574137793979,-0.375218540430069,-0.3391385972499847,-0.8284287452697754,-0.02816636115312576,-0.1215515732765198,0.07831096649169922,XArbitraryZVertical,0.1532393958601296,0.01788077477575271,-0.08679015359087337,0.9842079769089563,0.06179614365100861,-0.2985351085662842,-0.9523959159851074,41026.18377175,unknown,2,2020-03-09 10:24:22.004 +0100,605438685.2857699,0,44260.9,100.3639
2020-03-09 10:24:47.037 +0100,1583745885.999301,52.56389921746297,13.4102061601189,47.27488,0,222.8503668312302,7.200301234640093,16.53421747720952,-9999,41051.216271875,0.058502197265625,-0.377471923828125,-0.9101409912109375,41051.21124687501,-0.1986585171163044,0.06293396738303297,0.2975623175228258,-0.263374000787735,-0.4080104827880859,-0.8338874578475952,-0.01801488548517227,-0.09944567084312439,0.05868357419967651,XArbitraryZVertical,0.150514671173539,0.01626846685413629,-0.09338123599347008,0.9840531181779609,0.06012856215238571,-0.2931905090808868,-0.9541613459587097,41026.18377175,unknown,2,2020-03-09 10:24:22.004 +0100,605438685.2857699,0,44260.9,100.3639
2020-03-09 10:24:47.052 +0100,1583745885.999301,52.56389921746297,13.4102061601189,47.27488,0,222.8503668312302,7.200301234640093,16.53421747720952,-9999,41051.231344875,0.0807342529296875,-0.399078369140625,-0.923492431640625,41051.226320875,-0.2114472683682983,0.05991575234375492,0.2933351480288992,-0.2428770810365677,-0.4684490263462067,-0.8291649222373962,0.008503720164299011,-0.09492942690849304,0.04518145322799683,XArbitraryZVertical,0.1483880635740489,0.01405134312304347,-0.09999395871690149,0.9837604380595963,0.05732212960720062,-0.2891465127468109,-0.9555670619010925,41026.18377175,unknown,2,2020-03-09 10:24:22.004 +0100,605438685.2857699,0,44260.9,100.3639
2020-03-09 10:24:47.068 +0100,1583745885.999301,52.56389921746297,13.4102061601189,47.27488,0,222.8503668312302,7.200301234640093,16.53421747720952,-9999,41051.246417875,0.082763671875,-0.4063873291015625,-0.9464569091796875,41051.241393875,-0.2244533979216626,0.05611761081691604,0.2881233816290104,-0.3620029091835022,-0.5134037137031555,-0.872883677482605,0.02695757895708084,-0.1149219274520874,0.03377664089202881,XArbitraryZVertical,0.1457140077802555,0.01151826457610102,-0.1067851709532949,0.9834793121510814,0.05377614125609398,-0.2841534614562988,-0.9572694897651672,41026.18377175,unknown,2,2020-03-09 10:24:22.004 +0100,605438685.2857699,0,44260.9,100.3639
2020-03-09 10:24:47.083 +0100,1583745885.999301,52.56389921746297,13.4102061601189,47.27488,0,222.8503668312302,7.200301234640093,16.53421747720952,-9999,41051.261491875,0.0589141845703125,-0.373138427734375,-0.9685211181640625,41051.25646687501,-0.2379809978548653,0.05199565871521195,0.2818902034227058,-0.3800199329853058,-0.5297987461090088,-0.8866807222366333,0.02744060754776001,-0.1163108050823212,0.008366107940673828,XArbitraryZVertical,0.142493699228742,0.008884535843320907,-0.1138671113873983,0.9831840230541237,0.04992095753550529,-0.2781717479228973,-0.9592332243919373,41026.18377175,unknown,2,2020-03-09 10:24:22.004 +0100,605438685.2857699,0,44260.9,100.3639
2020-03-09 10:24:47.098 +0100,1583745885.999301,52.56389921746297,13.4102061601189,47.27488,0,222.8503668312302,7.200301234640093,16.53421747720952,-9999,41051.276564875,0.0384674072265625,-0.39654541015625,-0.985321044921875,41051.271539875,-0.2514281802884217,0.04752676399273423,0.2763181392170695,-0.2771373987197876,-0.5563988089561462,-0.8742249011993408,0.01320703327655792,-0.1003201901912689,-0.007541477680206299,XArbitraryZVertical,0.1395454283411467,0.006086103244912325,-0.1209068601237666,0.9827875323762117,0.04570669308304787,-0.2728153169155121,-0.9609800577163696,41026.18377175,unknown,2,2020-03-09 10:24:22.004 +0100,605438685.2857699,0,44260.9,100.3639
2020-03-09 10:24:47.113 +0100,1583745885.999301,52.56389921746297,13.4102061601189,47.27488,0,222.8503668312302,7.200301234640093,16.53421747720952,-9999,41051.291637875,0.0467529296875,-0.416046142578125,-0.983795166015625,41051.286613875,-0.2651864912380349,0.04271548542480694,0.2721897304179378,-0.2398906499147415,-0.5719031095504761,-0.9026952385902405,-0.002419248223304749,-0.140045702457428,-0.02359533309936523,XArbitraryZVertical,0.1372508493069226,0.003040072750999672,-0.1280806923196163,0.9822159373847119,0.04113038256764412,-0.2688412070274353,-0.9623059034347534,41026.18377175,unknown,2,2020-03-09 10:24:22.004 +0100,605438685.2857699,0,44260.9,100.3639
2020-03-09 10:24:47.128 +0100,1583745885.999301,52.56389921746297,13.4102061601189,47.27488,0,222.8503668312302,7.200301234640093,16.53421747720952,-9999,41051.306710875,0.0373992919921875,-0.40045166015625,-0.981658935546875,41051.30168687501,-0.279133423328625,0.03781078317034618,0.2674315352779009,-0.3294165134429932,-0.5788470506668091,-0.8980070352554321,0.01029453426599503,-0.1517881751060486,-0.02003210783004761,XArbitraryZVertical,0.134604120416891,1.02866657556034e-05,-0.1353518448151325,0.9816116024841623,0.03645802661776543,-0.2642551362514496,-0.9637634754180908,41026.18377175,unknown,2,2020-03-09 10:24:22.004 +0100,605438685.2857699,0,44260.9,100.3639
2020-03-09 10:24:47.143 +0100,1583745885.999301,52.56389921746297,13.4102061601189,47.27488,0,222.8503668312302,7.200301234640093,16.53421747720952,-9999,41051.321784875,0.0163116455078125,-0.4019775390625,-0.9924774169921875,41051.316759875,-0.2928377205249847,0.03269318574524288,0.2620485451087587,-0.3242703378200531,-0.5663852095603943,-0.8833076357841492,-0.001557733863592148,-0.1376965641975403,-0.01924383640289307,XArbitraryZVertical,0.1315988403170465,-0.003026404681141092,-0.1425136725899207,0.9810006525619033,0.03157145902514458,-0.2590596973896027,-0.9653451442718506,41026.18377175,unknown,2,2020-03-09 10:24:22.004 +0100,605438685.2857699,0,44260.9,100.3639
2020-03-09 10:24:47.158 +0100,1583745885.999301,52.56389921746297,13.4102061601189,47.27488,0,222.8503668312302,7.200301234640093,16.53421747720952,-9999,41051.336857875,0.030731201171875,-0.412261962890625,-1.011810302734375,41051.331832875,-0.3064278532124621,0.02803331262013874,0.2574797352783498,-0.2403039485216141,-0.5223655700683594,-0.8740479350090027,-0.0107942558825016,-0.1473307013511658,-0.02582287788391113,XArbitraryZVertical,0.1289895215719004,-0.005854131729126062,-0.1495589671492702,0.980285454881331,0.02710563875734806,-0.2546441853046417,-0.9666548371315002,41026.18377175,unknown,2,2020-03-09 10:24:22.004 +0100,605438685.2857699,0,44260.9,100.3639
2020-03-09 10:24:47.173 +0100,1583745885.999301,52.56389921746297,13.4102061601189,47.27488,0,222.8503668312302,7.200301234640093,16.53421747720952,-9999,41051.351930875,0.04931640625,-0.3990936279296875,-1.003646850585938,41051.34690687501,-0.3195770901198384,0.02376693491213108,0.2539294125063074,-0.2129909992218018,-0.4902500808238983,-0.8244165182113647,0.01708197966217995,-0.1575252413749695,-0.04514306783676147,XArbitraryZVertical,0.1268774850454921,-0.008508256747437567,-0.1563320778679309,0.9794845360131726,0.0230026300996542,-0.2512092888355255,-0.9676594138145447,41026.18377175,unknown,2,2020-03-09 10:24:22.004 +0100,605438685.2857699,0,44260.9,100.3639
2020-03-09 10:24:47.188 +0100,1583745885.999301,52.56389921746297,13.4102061601189,47.27488,0,222.8503668312302,7.200301234640093,16.53421747720952,-9999,41051.36700387501,0.048675537109375,-0.4117431640625,-0.9798126220703125,41051.361979875,-0.3320778983225183,0.01984608245096688,0.250423437861502,-0.2163788080215454,-0.4429869651794434,-0.8003854751586914,0.03009044006466866,-0.1512767821550369,-0.03503042459487915,XArbitraryZVertical,0.1247884099627084,-0.01092978754097912,-0.1627529330065171,0.9786826412024358,0.01922577247023582,-0.2478142082691193,-0.968616783618927,41026.18377175,unknown,2,2020-03-09 10:24:22.004 +0100,605438685.2857699,0,44260.9,100.3639
2020-03-09 10:24:47.203 +0100,1583745885.999301,52.56389921746297,13.4102061601189,47.27488,0,222.8503668312302,7.200301234640093,16.53421747720952,-9999,41051.382076875,0.0460357666015625,-0.399444580078125,-0.965301513671875,41051.377052875,-0.3445280336552057,0.01661770901953951,0.2475180258458622,-0.14969801902771,-0.4007954895496368,-0.8035450577735901,0.03270218893885612,-0.1650179177522659,-0.006150901317596436,XArbitraryZVertical,0.1230254204348429,-0.01303592572216155,-0.1690859158048901,0.977806051703165,0.01611051708459854,-0.2449983805418015,-0.9693896174430847,41026.18377175,unknown,2,2020-03-09 10:24:22.004 +0100,605438685.2857699,0,44260.9,100.3639
2020-03-09 10:24:47.218 +0100,1583745885.999301,52.56389921746297,13.4102061601189,47.27488,0,222.8503668312302,7.200301234640093,16.53421747720952,-9999,41051.397150875,0.0392303466796875,-0.3942108154296875,-0.922393798828125,41051.39212587501,-0.3570383647417588,0.01388483563269895,0.2460975099643892,-0.02239669114351273,-0.3627269566059113,-0.8074273467063904,0.03256957605481148,-0.1558210551738739,0.004475176334381104,XArbitraryZVertical,0.1220084342422963,-0.01501408083497899,-0.1753870825978582,0.9767946112989371,0.01346606016159058,-0.2436209172010422,-0.9697770476341248,41026.18377175,unknown,2,2020-03-09 10:24:22.004 +0100,605438685.2857699,0,44260.9,100.3639
2020-03-09 10:24:47.233 +0100,1583745885.999301,52.56389921746297,13.4102061601189,47.27488,0,222.8503668312302,7.200301234640093,16.53421747720952,-9999,41051.41222387501,0.0396881103515625,-0.4031219482421875,-0.9078216552734375,41051.407199875,-0.3697483522311484,0.01175751480391818,0.2464528174180816,0.06066165491938591,-0.3239350020885468,-0.8307931423187256,0.02563098259270191,-0.1528977900743484,0.05067968368530273,XArbitraryZVertical,0.1218906087807881,-0.01685942994263489,-0.1817155549021111,0.9756217552833473,0.01140198577195406,-0.2439655065536499,-0.9697169065475464,41026.18377175,unknown,2,2020-03-09 10:24:22.004 +0100,605438685.2857699,0,44260.9,100.3639
2020-03-09 10:24:47.248 +0100,1583745885.999301,52.56389921746297,13.4102061601189,47.27488,0,222.8503668312302,7.200301234640093,16.53421747720952,-9999,41051.427296875,0.039520263671875,-0.42608642578125,-0.90240478515625,41051.422272875,-0.3828785305752912,0.01041334486624206,0.2468017825141415,-0.02825304120779037,-0.2718797922134399,-0.8516078591346741,0.02959038689732552,-0.1588154882192612,0.06182414293289185,XArbitraryZVertical,0.1218208207422509,-0.01834722566324168,-0.1881934840728217,0.9743746943410023,0.01009762473404408,-0.2443039119243622,-0.969646155834198,41026.18377175,unknown,2,2020-03-09 10:24:22.004 +0100,605438685.2857699,0,44260.9,100.3639
2020-03-09 10:24:47.263 +0100,1583745885.999301,52.56389921746297,13.4102061601189,47.27488,0,222.8503668312302,7.200301234640093,16.53421747720952,-9999,41051.442369875,0.0576019287109375,-0.4522705078125,-0.8919677734375,41051.43734587501,-0.3960286928350477,0.01041862252260061,0.2452497843041651,-0.1656327694654465,-0.1578147709369659,-0.8361210227012634,0.03022219613194466,-0.1971402168273926,0.0671764612197876,XArbitraryZVertical,0.1209430831292767,-0.01899324646759599,-0.194618298379645,0.9732089243492331,0.01010667998343706,-0.2427986413240433,-0.970024049282074,41026.18377175,unknown,2,2020-03-09 10:24:22.004 +0100,605438685.2857699,0,44260.9,100.3639
2020-03-09 10:24:47.278 +0100,1583745885.999301,52.56389921746297,13.4102061601189,47.27488,0,222.8503668312302,7.200301234640093,16.53421747720952,-9999,41051.45744387501,0.0775146484375,-0.421356201171875,-0.9034423828125,41051.452418875,-0.4089429757805538,0.01168767007408089,0.242558012249511,-0.1718882918357849,-0.1010128036141396,-0.8320639133453369,0.04625653848052025,-0.2120814472436905,0.07869237661361694,XArbitraryZVertical,0.1196375280628578,-0.01888489062953687,-0.200862535052731,0.9721030274328496,0.01134527567774057,-0.2401865422725677,-0.9706604480743408,41026.18377175,unknown,2,2020-03-09 10:24:22.004 +0100,605438685.2857699,0,44260.9,100.3639
2020-03-09 10:24:47.294 +0100,1583745885.999301,52.56389921746297,13.4102061601189,47.27488,0,222.8503668312302,7.200301234640093,16.53421747720952,-9999,41051.472516875,0.075897216796875,-0.396087646484375,-0.8749542236328125,41051.467491875,-0.4216319689493186,0.01364176165094735,0.2405752431337581,-0.08342882990837097,-0.05303372442722321,-0.7978251576423645,0.06423551589250565,-0.1731588840484619,0.07885271310806274,XArbitraryZVertical,0.1187553384468086,-0.01848827308160441,-0.2069406386660856,0.9709432666602584,0.01324848271906376,-0.238261342048645,-0.9711107015609741,41026.18377175,unknown,2,2020-03-09 10:24:22.004 +0100,605438685.2857699,0,44260.9,100.3639
2020-03-09 10:24:47.309 +0100,1583745885.999301,52.56389921746297,13.4102061601189,47.27488,0,222.8503668312302,7.200301234640093,16.53421747720952,-9999,41051.487589875,0.0883026123046875,-0.4014129638671875,-0.8484954833984375,41051.48256587501,-0.4338515108576869,0.0160116764661531,0.2400784390345695,0.0313962921500206,-0.0143619617447257,-0.7934474349021912,0.06034528091549873,-0.1583063900470734,0.09624028205871582,XArbitraryZVertical,0.1186515434737693,-0.01801115944816943,-0.2127365755978551,0.9697115815124712,0.01555178593844175,-0.2377788126468658,-0.9711948037147522,41026.18377175,unknown,2,2020-03-09 10:24:22.004 +0100,605438685.2857699,0,44260.9,100.3639
2020-03-09 10:24:47.325 +0100,1583745885.999301,52.56389921746297,13.4102061601189,47.27488,0,222.8503668312302,7.200301234640093,16.53421747720952,-9999,41051.50266287501,0.1141510009765625,-0.4156494140625,-0.8601837158203125,41051.497638875,-0.4465062424870506,0.01917203414692327,0.2412964747426753,0.1232477948069572,0.0262901559472084,-0.8236070871353149,0.07727058231830597,-0.1619604527950287,0.1200811862945557,XArbitraryZVertical,0.1194703379438698,-0.017365905727957,-0.2186585838156474,0.9683045044073164,0.01861546002328396,-0.2389617413282394,-0.9708505272865295,41026.18377175,unknown,2,2020-03-09 10:24:22.004 +0100,605438685.2857699,0,44260.9,100.3639
2020-03-09 10:24:47.339 +0100,1583745886.999295,52.56389921746297,13.4102061601189,47.27488,0,222.8503668312302,7.256626139366452,16.0804226607808,-9999,41051.517736875,0.1448211669921875,-0.42974853515625,-0.8491973876953125,41051.512711875,-0.4592062350575405,0.02270752303822597,0.2439772688141732,0.2470884025096893,0.03668929636478424,-0.8012052774429321,0.09211763739585876,-0.1740829348564148,0.1099506616592407,XArbitraryZVertical,0.1210499798521423,-0.01671952198742896,-0.2245398779225745,0.9667726084889646,0.02203314378857613,-0.241564005613327,-0.9701347351074219,41026.18377175,unknown,2,2020-03-09 10:24:22.004 +0100,605438685.2857699,0,44260.9,100.3639
2020-03-09 10:24:47.354 +0100,1583745886.999295,52.56389921746297,13.4102061601189,47.27488,0,222.8503668312302,7.256626139366452,16.0804226607808,-9999,41051.532809875,0.1544189453125,-0.4357452392578125,-0.8789215087890625,41051.527784875,-0.4716179496005424,0.02630992194261132,0.2480969574306345,0.2937217354774475,0.04382480680942535,-0.7911921143531799,0.1257739663124084,-0.1842473745346069,0.1134090423583984,XArbitraryZVertical,0.1233457000279969,-0.01621238256870945,-0.230231775989639,0.9651508705610797,0.02550140954554081,-0.2455596327781677,-0.9690459966659546,41026.18377175,unknown,2,2020-03-09 10:24:22.004 +0100,605438685.2857699,0,44260.9,100.3639
2020-03-09 10:24:47.369 +0100,1583745886.999295,52.56389921746297,13.4102061601189,47.27488,0,222.8503668312302,7.256626139366452,16.0804226607808,-9999,41051.54788287501,0.131256103515625,-0.43927001953125,-0.941253662109375,41051.542858875,-0.4844779098267176,0.03045058190544972,0.2526286898532155,0.3397720456123352,0.08232692629098892,-0.8518975377082825,0.1249391660094261,-0.1857926249504089,0.08888798952102661,XArbitraryZVertical,0.1259093457756917,-0.01555343656746596,-0.2360761400963018,0.9634172894657173,0.0294794850051403,-0.2499500662088394,-0.9678098559379578,41026.18377175,unknown,2,2020-03-09 10:24:22.004 +0100,605438685.2857699,0,44260.9,100.3639
2020-03-09 10:24:47.384 +0100,1583745886.999295,52.56389921746297,13.4102061601189,47.27488,0,222.8503668312302,7.256626139366452,16.0804226607808,-9999,41051.562955875,0.0960845947265625,-0.4270477294921875,-0.9636383056640625,41051.557931875,-0.498479683768043,0.03579439845364149,0.2574924220140038,0.3077709674835205,0.1543486416339874,-0.9101372361183167,0.08323635160923004,-0.1811471581459045,0.0131341814994812,XArbitraryZVertical,0.1287815505726945,-0.01446504815470095,-0.2423599832402566,0.9614923456995937,0.0346069224178791,-0.2546564340591431,-0.9664121270179749,41026.18377175,unknown,2,2020-03-09 10:24:22.004 +0100,605438685.2857699,0,44260.9,100.3639
2020-03-09 10:24:47.399 +0100,1583745886.999295,52.56389921746297,13.4102061601189,47.27488,0,222.8503668312302,7.256626139366452,16.0804226607808,-9999,41051.578029875,0.0912322998046875,-0.4271697998046875,-0.9233551025390625,41051.573004875,-0.512973659402699,0.04242784480846902,0.2605390240316658,0.1496313512325287,0.2313922345638275,-0.938048243522644,0.05510050803422928,-0.1694436073303223,0.001743018627166748,XArbitraryZVertical,0.1309592930107687,-0.01260190768961585,-0.2488124270689124,0.9595745123851465,0.0409836620092392,-0.257601410150528,-0.9653816819190979,41026.18377175,unknown,2,2020-03-09 10:24:22.004 +0100,605438685.2857699,0,44260.9,100.3639
2020-03-09 10:24:47.414 +0100,1583745886.999295,52.56389921746297,13.4102061601189,47.27488,0,222.8503668312302,7.256626139366452,16.0804226607808,-9999,41051.59310287501,0.0887451171875,-0.36962890625,-0.9108123779296875,41051.588077875,-0.5282441245142269,0.05077631789497072,0.2617704843670744,0.1018831208348274,0.3433186709880829,-1.013796806335449,0.03756764531135559,-0.1582745611667633,0.04938948154449463,XArbitraryZVertical,0.1325158831053308,-0.009765182941042975,-0.2555473561900405,0.9576217850602099,0.04902546480298042,-0.2587911188602448,-0.9646883606910706,41026.18377175,unknown,2,2020-03-09 10:24:22.004 +0100,605438685.2857699,0,44260.9,100.3639
2020-03-09 10:24:47.429 +0100,1583745886.999295,52.56389921746297,13.4102061601189,47.27488,0,222.8503668312302,7.256626139366452,16.0804226607808,-9999,41051.608175875,0.10009765625,-0.342864990234375,-0.9097900390625,41051.603151875,-0.5445278719747553,0.06060564628620603,0.2634460627893344,0.233816921710968,0.3810530006885529,-1.039509892463684,0.03026566654443741,-0.1092168688774109,0.05291295051574707,XArbitraryZVertical,0.1345232950751648,-0.006374097301767723,-0.2626278567945755,0.9554524672289857,0.05847883597016335,-0.2604092657566071,-0.9637256860733032,41026.18377175,unknown,2,2020-03-09 10:24:22.004 +0100,605438685.2857699,0,44260.9,100.3639
2020-03-09 10:24:47.444 +0100,1583745886.999295,52.56389921746297,13.4102061601189,47.27488,0,222.8503668312302,7.256626139366452,16.0804226607808,-9999,41051.623248875,0.1220550537109375,-0.3500518798828125,-0.8903045654296875,41051.618224875,-0.5610479406638328,0.07101865714055408,0.267530488007394,0.4136247634887695,0.40622279047966,-1.036936283111572,0.0363466665148735,-0.08113610744476318,0.04547595977783203,XArbitraryZVertical,0.1378138889763994,-0.003091154470446421,-0.2696632890946241,0.9530368897506744,0.06843472272157669,-0.2643505930900574,-0.961995542049408,41026.18377175,unknown,2,2020-03-09 10:24:22.004 +0100,605438685.2857699,0,44260.9,100.3639
2020-03-09 10:24:47.459 +0100,1583745886.999295,52.56389921746297,13.4102061601189,47.27488,0,222.8503668312302,7.256626139366452,16.0804226607808,-9999,41051.63832287501,0.144500732421875,-0.3596038818359375,-0.8935546875,41051.633297875,-0.57787869613859,0.08172542038906745,0.2734183062334754,0.4937403798103333,0.4203271269798279,-1.045000672340393,0.04345220327377319,-0.08002471923828125,0.06933480501174927,XArbitraryZVertical,0.1420566496016603,-7.115849133279128e-06,-0.2767049866500367,0.9503968971476373,0.07860203832387924,-0.2700243294239044,-0.9596397876739502,41026.18377175,unknown,2,2020-03-09 10:24:22.004 +0100,605438685.2857699,0,44260.9,100.3639
2020-03-09 10:24:47.474 +0100,1583745886.999295,52.56389921746297,13.4102061601189,47.27488,0,222.8503668312302,7.256626139366452,16.0804226607808,-9999,41051.653395875,0.16815185546875,-0.3890533447265625,-0.9353179931640625,41051.648370875,-0.5947502624760637,0.09301179333731745,0.2794648423203913,0.4708710014820099,0.4661293029785156,-1.028333067893982,0.0622444748878479,-0.09096187353134155,0.05470418930053711,XArbitraryZVertical,0.1465101825498027,0.003249465089649924,-0.283651212966471,0.9476635596676313,0.08927438408136368,-0.2758412957191467,-0.9570484161376953,41026.18377175,unknown,2,2020-03-09 10:24:22.004 +0100,605438685.2857699,0,44260.9,100.3639
2020-03-09 10:24:47.489 +0100,1583745886.999295,52.56389921746297,13.4102061601189,47.27488,0,222.8503668312302,7.256626139366452,16.0804226607808,-9999,41051.668468875,0.203338623046875,-0.372711181640625,-0.954193115234375,41051.663444875,-0.6114602550016044,0.1052162969027844,0.2848938173420139,0.4461158514022827,0.5386823415756226,-1.018464207649231,0.06736183911561966,-0.1079948544502258,0.01906579732894897,XArbitraryZVertical,0.1508619505107906,0.006966479576076718,-0.290409855241031,0.9449096275455877,0.1007889807224274,-0.2810555398464203,-0.9543842673301697,41026.18377175,unknown,2,2020-03-09 10:24:22.004 +0100,605438685.2857699,0,44260.9,100.3639
2020-03-09 10:24:47.524 +0100,1583745886.999295,52.56389921746297,13.4102061601189,47.27488,0,222.8503668312302,7.256626139366452,16.0804226607808,-9999,41051.68354187501,0.23828125,-0.371337890625,-0.93792724609375,41051.678517875,-0.6277758771775818,0.1183664730816359,0.2899065432771372,0.4571670293807983,0.5839248299598694,-0.9587726593017578,0.09971177577972412,-0.08383956551551819,-0.005985140800476074,XArbitraryZVertical,0.1552192195706381,0.0111477331218706,-0.2968596130782409,0.9421555327215546,0.1131624281406403,-0.2858626842498779,-0.9515654444694519,41026.18377175,unknown,2,2020-03-09 10:24:22.004 +0100,605438685.2857699,0,44260.9,100.3639
2020-03-09 10:24:47.526 +0100,1583745886.999295,52.56389921746297,13.4102061601189,47.27488,0,222.8503668312302,7.256626139366452,16.0804226607808,-9999,41051.698615875,0.2651824951171875,-0.38818359375,-0.899566650390625,41051.693590875,-0.6427759684380739,0.1316462459426954,0.2951809137185093,0.4780180156230927,0.5968884229660034,-0.8465312123298645,0.1126909404993057,-0.08042183518409729,0.0105431079864502,XArbitraryZVertical,0.1597751054553581,0.01537750112335321,-0.3025955956095119,0.9395057864784682,0.125588983297348,-0.2909129559993744,-0.9484708905220032,41026.18377175,unknown,2,2020-03-09 10:24:22.004 +0100,605438685.2857699,0,44260.9,100.3639
2020-03-09 10:24:47.535 +0100,1583745886.999295,52.56389921746297,13.4102061601189,47.27488,0,222.8503668312302,7.256626139366452,16.0804226607808,-9999,41051.713688875,0.2677459716796875,-0.3720245361328125,-0.91607666015625,41051.708663875,-0.6570231452533263,0.1443429859602518,0.3014902395151953,0.6134811639785767,0.514904260635376,-0.8468950986862183,0.1331368684768677,-0.09117591381072998,0.04529064893722534,XArbitraryZVertical,0.164774985804901,0.01915324267712375,-0.3078955057195228,0.9368471535455307,0.1373542696237564,-0.2969435453414917,-0.9449647068977356,41026.18377175,unknown,2,2020-03-09 10:24:22.004 +0100,605438685.2857699,0,44260.9,100.3639
2020-03-09 10:24:47.550 +0100,1583745886.999295,52.56389921746297,13.4102061601189,47.27488,0,222.8503668312302,7.256626139366452,16.0804226607808,-9999,41051.72876187501,0.241485595703125,-0.361358642578125,-1.017913818359375,41051.723737875,-0.6721174456501933,0.1557202609942551,0.3098871841649006,0.7667170166969299,0.3920504748821259,-0.862468957901001,0.1200401037931442,-0.06707015633583069,0.02476710081100464,XArbitraryZVertical,0.170592988018861,0.02181364577457934,-0.3134991100728342,0.9338845546093292,0.1477043479681015,-0.3049511909484863,-0.9408444166183472,41026.18377175,unknown,2,2020-03-09 10:24:22.004 +0100,605438685.2857699,0,44260.9,100.3639
2020-03-09 10:24:47.565 +0100,1583745886.999295,52.56389921746297,13.4102061601189,47.27488,0,222.8503668312302,7.256626139366452,16.0804226607808,-9999,41051.743834875,0.222869873046875,-0.3964080810546875,-1.099197387695312,41051.738810875,-0.6871432686030917,0.1656086472302042,0.3193977276180431,0.7502409815788269,0.3206870853900909,-0.8020586967468262,0.07711054384708405,-0.05109906196594238,-0.1132636666297913,XArbitraryZVertical,0.1767207547311903,0.02350201882544165,-0.3190423821118455,0.9308218662945208,0.1565152108669281,-0.3139947950839996,-0.9364348649978638,41026.18377175,unknown,2,2020-03-09 10:24:22.004 +0100,605438685.2857699,0,44260.9,100.3639
2020-03-09 10:24:47.580 +0100,1583745886.999295,52.56389921746297,13.4102061601189,47.27488,0,222.8503668312302,7.256626139366452,16.0804226607808,-9999,41051.758908875,0.2436981201171875,-0.412017822265625,-1.110595703125,41051.753883875,-0.7010942913528816,0.1752040351519965,0.3274116724821611,0.5721469521522522,0.3733779788017273,-0.7544198632240295,0.05781883001327515,-0.07481154799461365,-0.1668159365653992,XArbitraryZVertical,0.1821206996805584,0.02531758831735371,-0.324129519178678,0.9279714889479589,0.1650493890047073,-0.3215932846069336,-0.9323821663856506,41026.18377175,unknown,2,2020-03-09 10:24:22.004 +0100,605438685.2857699,0,44260.9,100.3639
2020-03-09 10:24:47.595 +0100,1583745886.999295,52.56389921746297,13.4102061601189,47.27488,0,222.8503668312302,7.256626139366452,16.0804226607808,-9999,41051.77398187501,0.2881011962890625,-0.3847503662109375,-1.036636352539062,41051.768956875,-0.7138216163164859,0.1854705768363739,0.3326571769222339,0.4234530925750732,0.4224495887756348,-0.7004273533821106,0.08551026880741119,-0.08475691080093384,-0.1637301445007324,XArbitraryZVertical,0.1863695828319485,0.02797323615362592,-0.3287138469012952,0.9254355196910833,0.1742993742227554,-0.3265556693077087,-0.9289677739143372,41026.18377175,unknown,2,2020-03-09 10:24:22.004 +0100,605438685.2857699,0,44260.9,100.3639
2020-03-09 10:24:47.610 +0100,1583745886.999295,52.56389921746297,13.4102061601189,47.27488,0,222.8503668312302,7.256626139366452,16.0804226607808,-9999,41051.789054875,0.24627685546875,-0.260650634765625,-1.047836303710938,41051.784030875,-0.726620015979198,0.195207361371142,0.3369680538637351,0.4733050763607025,0.2946732640266418,-0.7828750610351562,0.1050380319356918,-0.05411991477012634,-0.1108000874519348,XArbitraryZVertical,0.190136332577712,0.03049038767190232,-0.3333963606909974,0.9229113293249833,0.1830613762140274,-0.3306271731853485,-0.9258370399475098,41026.18377175,unknown,2,2020-03-09 10:24:22.004 +0100,605438685.2857699,0,44260.9,100.3639
2020-03-09 10:24:47.625 +0100,1583745886.999295,52.56389921746297,13.4102061601189,47.27488,0,222.8503668312302,7.256626139366452,16.0804226607808,-9999,41051.804127875,0.115142822265625,-0.160064697265625,-1.060745239257812,41051.799103875,-0.741153895158057,0.203539981104856,0.3426243477323792,0.6166487336158752,0.1694067716598511,-0.8176894187927246,0.01050685346126556,0.1160537004470825,-0.1333842277526855,XArbitraryZVertical,0.1943353459916326,0.03189302154296064,-0.3388619833936894,0.9199940448872171,0.1903885006904602,-0.3359600603580475,-0.9224331974983215,41026.18377175,unknown,2,2020-03-09 10:24:22.004 +0100,605438685.2857699,0,44260.9,100.3639
2020-03-09 10:24:47.640 +0100,1583745886.999295,52.56389921746297,13.4102061601189,47.27488,0,222.8503668312302,7.256626139366452,16.0804226607808,-9999,41051.81920187501,0.0532989501953125,-0.1270599365234375,-1.119674682617188,41051.814176875,-0.7552200883084293,0.2102153627895381,0.3493853275487667,0.6070678234100342,0.1115421578288078,-0.7190597057342529,-0.0809224545955658,0.1822590529918671,-0.141846776008606,XArbitraryZVertical,0.1987621808305617,0.03231015478847477,-0.3441345563292353,0.9170718902090207,0.1960633397102356,-0.3423203229904175,-0.9188992977142334,41026.18377175,unknown,2,2020-03-09 10:24:22.004 +0100,605438685.2857699,0,44260.9,100.3639
2020-03-09 10:24:47.655 +0100,1583745886.999295,52.56389921746297,13.4102061601189,47.27488,0,222.8503668312302,7.256626139366452,16.0804226607808,-9999,41051.83427491667,0.0880279541015625,-0.09527587890625,-1.159637451171875,41051.829249875,-0.7681637241993156,0.2164477546557284,0.3549228424316841,0.4154720902442932,0.110716313123703,-0.719279944896698,-0.1447681039571762,0.2358271181583405,-0.223916232585907,XArbitraryZVertical,0.2025499302032239,0.03280973426608869,-0.3489870428562078,0.9143877798016896,0.2013762444257736,-0.3475180268287659,-0.9157940745353699,41026.18377175,unknown,2,2020-03-09 10:24:22.004 +0100,605438685.2857699,0,44260.9,100.3639
2020-03-09 10:24:47.670 +0100,1583745886.999295,52.56389921746297,13.4102061601189,47.27488,0,222.8503668312302,7.256626139366452,16.0804226607808,-9999,41051.84934791667,0.1333160400390625,-0.1099395751953125,-1.154006958007812,41051.84432391667,-0.780658426874771,0.2222718452832951,0.3568633690782637,0.202117457985878,0.07831016927957535,-0.7254539728164673,-0.1185314655303955,0.2540645003318787,-0.2456920742988586,XArbitraryZVertical,0.2046533830865556,0.03382118307942451,-0.3539378796736883,0.9119764654783015,0.2065574079751968,-0.3493369519710541,-0.9139462113380432,41026.18377175,unknown,2,2020-03-09 10:24:22.004 +0100,605438685.2857699,0,44260.9,100.3639
2020-03-09 10:24:47.686 +0100,1583745886.999295,52.56389921746297,13.4102061601189,47.27488,0,222.8503668312302,7.256626139366452,16.0804226607808,-9999,41051.86442091667,0.1544952392578125,-0.07177734375,-1.152374267578125,41051.85939691667,-0.7922351397733731,0.2268593479605605,0.3569021203255126,0.1259652376174927,-0.01964287646114826,-0.6730527281761169,-0.06818406283855438,0.2492637038230896,-0.235859215259552,XArbitraryZVertical,0.2056864486382317,0.03471537407181383,-0.358736644028159,0.9098329225447209,0.2107449173927307,-0.3493732511997223,-0.9129758477210999,41026.18377175,unknown,2,2020-03-09 10:24:22.004 +0100,605438685.2857699,0,44260.9,100.3639
2020-03-09 10:24:47.701 +0100,1583745886.999295,52.56389921746297,13.4102061601189,47.27488,0,222.8503668312302,7.256626139366452,16.0804226607808,-9999,41051.87949491667,0.13909912109375,-0.0718994140625,-1.13751220703125,41051.87446991667,-0.8029180381435458,0.2292972488112285,0.3559934576926183,0.05699289962649345,-0.1421598196029663,-0.6574822068214417,-0.05854889750480652,0.2767477035522461,-0.2396069765090942,XArbitraryZVertical,0.2059067130576498,0.0349049405728721,-0.3634184703565914,0.9079157749178058,0.2130420953035355,-0.3485217094421387,-0.9127681255340576,41026.18377175,unknown,2,2020-03-09 10:24:22.004 +0100,605438685.2857699,0,44260.9,100.3639
2020-03-09 10:24:47.715 +0100,1583745886.999295,52.56389921746297,13.4102061601189,47.27488,0,222.8503668312302,7.256626139366452,16.0804226607808,-9999,41051.89456791667,0.1281585693359375,-0.1197967529296875,-1.092376708984375,41051.88954291667,-0.8132678278796172,0.23025533877035,0.3537723652068547,-0.05941072851419449,-0.1946519315242767,-0.6672695279121399,-0.08265548944473267,0.2640448808670044,-0.210587203502655,XArbitraryZVertical,0.2052724866382562,0.0347231178676931,-0.3682055390284951,0.9061358170837983,0.2140926569700241,-0.346439003944397,-0.9133149981498718,41026.18377175,unknown,2,2020-03-09 10:24:22.004 +0100,605438685.2857699,0,44260.9,100.3639
2020-03-09 10:24:47.731 +0100,1583745886.999295,52.56389921746297,13.4102061601189,47.27488,0,222.8503668312302,7.256626139366452,16.0804226607808,-9999,41051.90964091667,0.131927490234375,-0.187591552734375,-1.039718627929688,41051.90461691667,-0.8234540586983828,0.2308198620748998,0.3498914599236762,-0.1308228671550751,-0.197807252407074,-0.6812646985054016,-0.08675761520862579,0.2230023145675659,-0.1778815388679504,XArbitraryZVertical,0.2038283409873344,0.03472775395862803,-0.3730944052792393,0.9044603549330247,0.2149141877889633,-0.3427958488464355,-0.9144960045814514,41026.18377175,unknown,2,2020-03-09 10:24:22.004 +0100,605438685.2857699,0,44260.9,100.3639
2020-03-09 10:24:47.746 +0100,1583745886.999295,52.56389921746297,13.4102061601189,47.27488,0,222.8503668312302,7.256626139366452,16.0804226607808,-9999,41051.92471391667,0.15423583984375,-0.22686767578125,-0.9856719970703125,41051.91968991667,-0.8334122158716942,0.2309909292650409,0.3456705517650611,-0.1265999376773834,-0.2359052300453186,-0.6513667106628418,-0.07866799831390381,0.1345157325267792,-0.1088758111000061,XArbitraryZVertical,0.2021599811480395,0.03466384127387606,-0.3779415537348013,0.9028232268299616,0.2153999507427216,-0.3388276398181915,-0.9158595204353333,41026.18377175,unknown,2,2020-03-09 10:24:22.004 +0100,605438685.2857699,0,44260.9,100.3639
2020-03-09 10:24:47.761 +0100,1583745886.999295,52.56389921746297,13.4102061601189,47.27488,0,222.8503668312302,7.256626139366452,16.0804226607808,-9999,41051.93978791667,0.1902618408203125,-0.2484893798828125,-0.9322357177734375,41051.93476291667,-0.8426407300432238,0.230224320257094,0.3416363067938203,-0.1421194076538086,-0.2816056311130524,-0.5921705961227417,-0.06077413260936737,0.1081647574901581,-0.06832504272460938,XArbitraryZVertical,0.2003858852477931,0.03422882693589484,-0.3825293206352619,0.9013018562709085,0.2150079607963562,-0.335029274225235,-0.91734778881073,41026.18377175,unknown,2,2020-03-09 10:24:22.004 +0100,605438685.2857699,0,44260.9,100.3639
2020-03-09 10:24:47.776 +0100,1583745886.999295,52.56389921746297,13.4102061601189,47.27488,0,222.8503668312302,7.256626139366452,16.0804226607808,-9999,41051.95486091667,0.2350616455078125,-0.2833404541015625,-0.9049072265625,41051.94983591667,-0.8510263695943097,0.228362287449562,0.3374348408276805,-0.153407022356987,-0.3511081635951996,-0.5690259337425232,-0.009242013096809387,0.07165610790252686,-0.001347184181213379,XArbitraryZVertical,0.1983109774065645,0.03343666063832153,-0.3868518987694576,0.8999445159751374,0.2136162370443344,-0.331067681312561,-0.9191094636917114,41026.18377175,unknown,2,2020-03-09 10:24:22.004 +0100,605438685.2857699,0,44260.9,100.3639
2020-03-09 10:24:47.791 +0100,1583745886.999295,52.56389921746297,13.4102061601189,47.27488,0,222.8503668312302,7.256626139366452,16.0804226607808,-9999,41051.96993391667,0.2310333251953125,-0.3038177490234375,-0.9077301025390625,41051.96490991667,-0.8595643942571104,0.2251940696320577,0.3336758421682627,-0.09214286506175995,-0.4444279968738556,-0.5903930068016052,0.0240800529718399,0.04418098926544189,0.01608026027679443,XArbitraryZVertical,0.1961735458989804,0.03196605445498998,-0.3913233409442061,0.8985321097636283,0.210979625582695,-0.3275183439254761,-0.9209882020950317,41026.18377175,unknown,2,2020-03-09 10:24:22.004 +0100,605438685.2857699,0,44260.9,100.3639
2020-03-09 10:24:47.806 +0100,1583745886.999295,52.56389921746297,13.4102061601189,47.27488,0,222.8503668312302,7.256626139366452,16.0804226607808,-9999,41051.98500691667,0.1438140869140625,-0.2408599853515625,-0.931976318359375,41051.97998291667,-0.8685865141773698,0.221065893651132,0.3307595411079392,-0.03011084347963333,-0.4747284054756165,-0.5831607580184937,0.001140281558036804,0.03451186418533325,0.01013517379760742,XArbitraryZVertical,0.1942138129888238,0.02985526738918518,-0.3960217750968281,0.8969706106842579,0.207384392619133,-0.3247614800930023,-0.9227793216705322,41026.18377175,unknown,2,2020-03-09 10:24:22.004 +0100,605438685.2857699,0,44260.9,100.3639
2020-03-09 10:24:47.821 +0100,1583745886.999295,52.56389921746297,13.4102061601189,47.27488,0,222.8503668312302,7.256626139366452,16.0804226607808,-9999,41052.00008091667,0.0638580322265625,-0.175079345703125,-0.9954071044921875,41051.99505591667,-0.877358439502538,0.2170830363268296,0.329513761973305,0.1263983249664307,-0.4243628084659576,-0.5334081649780273,-0.05998227000236511,0.08272606134414673,-0.007984697818756104,XArbitraryZVertical,0.1929977613128977,0.02748981195167806,-0.4004417310892841,0.8953449039094676,0.2037944346666336,-0.3235829770565033,-0.9239923357963562,41026.18377175,unknown,2,2020-03-09 10:24:22.004 +0100,605438685.2857699,0,44260.9,100.3639
2020-03-09 10:24:47.836 +0100,1583745886.999295,52.56389921746297,13.4102061601189,47.27488,0,222.8503668312302,7.256626139366452,16.0804226607808,-9999,41052.01515391667,0.0828399658203125,-0.1595611572265625,-1.0159912109375,41052.01012891667,-0.8862027864529473,0.2142073235747638,0.3307908385943008,0.2729756236076355,-0.3267175257205963,-0.5137994289398193,-0.1412511467933655,0.1593583524227142,-0.08393311500549316,XArbitraryZVertical,0.1930967225351862,0.02507260400182076,-0.4045688594449233,0.8935373911573173,0.2010484635829926,-0.3247911036014557,-0.9241700172424316,41026.18377175,unknown,2,2020-03-09 10:24:22.004 +0100,605438685.2857699,0,44260.9,100.3639
2020-03-09 10:24:47.851 +0100,1583745886.999295,52.56389921746297,13.4102061601189,47.27488,0,222.8503668312302,7.256626139366452,16.0804226607808,-9999,41052.03022691667,0.1266021728515625,-0.19219970703125,-1.001251220703125,41052.02520291667,-0.894947967560325,0.212610260510864,0.3332035228966531,0.2766726315021515,-0.2622250914573669,-0.4911822974681854,-0.1165681481361389,0.1675138473510742,-0.0922706127166748,XArbitraryZVertical,0.1939356769805574,0.02298497285788027,-0.4084266245016741,0.891654861827716,0.199406310915947,-0.3270720243453979,-0.9237213134765625,41026.18377175,unknown,2,2020-03-09 10:24:22.004 +0100,605438685.2857699,0,44260.9,100.3639
2020-03-09 10:24:47.866 +0100,1583745886.999295,52.56389921746297,13.4102061601189,47.27488,0,222.8503668312302,7.256626139366452,16.0804226607808,-9999,41052.04529991667,0.15264892578125,-0.239959716796875,-0.926055908203125,41052.04027591667,-0.9031031008019306,0.2118420556828456,0.3352387629334283,0.1923491656780243,-0.2075278460979462,-0.4438402056694031,-0.06397557258605957,0.118807852268219,-0.05962836742401123,XArbitraryZVertical,0.1947595069808325,0.02140063631209258,-0.4119646022001958,0.8898853393607467,0.1985562741756439,-0.3289946615695953,-0.9232214689254761,41026.18377175,unknown,2,2020-03-09 10:24:22.004 +0100,605438685.2857699,0,44260.9,100.3639
2020-03-09 10:24:47.881 +0100,1583745886.999295,52.56389921746297,13.4102061601189,47.27488,0,222.8503668312302,7.256626139366452,16.0804226607808,-9999,41052.06037391667,0.178802490234375,-0.271270751953125,-0.85205078125,41052.05534891667,-0.9098105921074383,0.2116187026829055,0.3351641370118675,-0.03072350099682808,-0.1217302307486534,-0.3736559152603149,-0.04570810496807098,0.08896750211715698,-0.002766788005828857,XArbitraryZVertical,0.1947512753670117,0.02066477877660319,-0.4149747019608839,0.8885048334249991,0.1983552128076553,-0.3289241790771484,-0.9232898354530334,41026.18377175,unknown,2,2020-03-09 10:24:22.004 +0100,605438685.2857699,0,44260.9,100.3639
2020-03-09 10:24:47.896 +0100,1583745886.999295,52.56389921746297,13.4102061601189,47.27488,0,222.8503668312302,7.256626139366452,16.0804226607808,-9999,41052.07544691667,0.20172119140625,-0.276519775390625,-0.8009033203125,41052.07042191667,-0.9152921601829088,0.2120041065280951,0.332934933963726,-0.03707409650087357,-0.06756287813186646,-0.3780355751514435,-0.01083259284496307,0.04802784323692322,0.09436780214309692,XArbitraryZVertical,0.1939158349779535,0.02080240020764773,-0.4175565416275871,0.8874740868984066,0.1988648325204849,-0.3268181979656219,-0.9239278435707092,41026.18377175,unknown,2,2020-03-09 10:24:22.004 +0100,605438685.2857699,0,44260.9,100.3639
2020-03-09 10:24:47.912 +0100,1583745886.999295,52.56389921746297,13.4102061601189,47.27488,0,222.8503668312302,7.256626139366452,16.0804226607808,-9999,41052.09051991667,0.2332611083984375,-0.260528564453125,-0.81475830078125,41052.08549591667,-0.9217261761880239,0.2132379566700175,0.3330013486836902,0.2645313143730164,-0.04728477448225021,-0.404447466135025,0.001719295978546143,0.0503641664981842,0.1227564811706543,XArbitraryZVertical,0.1942699732166937,0.02071013437004844,-0.4202840718396544,0.8861102955659282,0.2000000774860382,-0.3268809616565704,-0.9236605167388916,41026.18377175,unknown,2,2020-03-09 10:24:22.004 +0100,605438685.2857699,0,44260.9,100.3639
2020-03-09 10:24:47.927 +0100,1583745886.999295,52.56389921746297,13.4102061601189,47.27488,0,222.8503668312302,7.256626139366452,16.0804226607808,-9999,41052.10559291667,0.2900543212890625,-0.2553558349609375,-0.832122802734375,41052.10056891667,-0.9294014725970491,0.2145398276575659,0.3376630902039971,0.546545684337616,-0.07582031935453415,-0.3980944156646729,0.05344057083129883,0.07513687014579773,0.1011751890182495,XArbitraryZVertical,0.1966477707590251,0.01947893332456432,-0.4231616679886982,0.8842422301878122,0.2008757889270782,-0.3312830626964569,-0.9219004511833191,41026.18377175,unknown,2,2020-03-09 10:24:22.004 +0100,605438687.8559839,0,44260.91,100.3644
2020-03-09 10:24:47.942 +0100,1583745886.999295,52.56389921746297,13.4102061601189,47.27488,0,222.8503668312302,7.256626139366452,16.0804226607808,-9999,41052.12066691667,0.313018798828125,-0.2907562255859375,-0.83489990234375,41052.11564191667,-0.9376073079084373,0.2159415258698391,0.3446878723306703,0.5807248950004578,-0.1031130328774452,-0.4155164361000061,0.08838823437690735,0.08255025744438171,0.08719855546951294,XArbitraryZVertical,0.2000660393072785,0.01767829107787051,-0.4260474887815103,0.8821249957068604,0.2016641944646835,-0.3379029333591461,-0.91932213306427,41026.18377175,unknown,2,2020-03-09 10:24:22.004 +0100,605438687.8559839,0,44260.91,100.3644
2020-03-09 10:24:47.957 +0100,1583745886.999295,52.56389921746297,13.4102061601189,47.27488,0,222.8503668312302,7.256626139366452,16.0804226607808,-9999,41052.13573991667,0.2820892333984375,-0.2733917236328125,-0.7974090576171875,41052.13071491667,-0.9466764779437385,0.2170054272466848,0.3511614066634052,0.5016434192657471,-0.1491037011146545,-0.4978691041469574,0.1049601286649704,0.0487494170665741,0.09434962272644043,XArbitraryZVertical,0.2031659257762605,0.0157404266186344,-0.4293754694369623,0.8798367010803972,0.2021669447422028,-0.3439885675907135,-0.9169517159461975,41026.18377175,unknown,2,2020-03-09 10:24:22.004 +0100,605438687.8559839,0,44260.91,100.3644
2020-03-09 10:24:47.972 +0100,1583745886.999295,52.56389921746297,13.4102061601189,47.27488,0,222.8503668312302,7.256626139366452,16.0804226607808,-9999,41052.15081291667,0.2278289794921875,-0.227508544921875,-0.7964019775390625,41052.14578891667,-0.9553604736301096,0.2176724255628491,0.3556473939100668,0.322002500295639,-0.1634709239006042,-0.4080084562301636,0.07964417338371277,0.07480877637863159,0.1178908348083496,XArbitraryZVertical,0.2053064330539324,0.0141038089043413,-0.4327306800732315,0.8777212074063985,0.2024432122707367,-0.3481973111629486,-0.915300726890564,41026.18377175,unknown,2,2020-03-09 10:24:22.004 +0100,605438687.8559839,0,44260.91,100.3644
2020-03-09 10:24:47.987 +0100,1583745886.999295,52.56389921746297,13.4102061601189,47.27488,0,222.8503668312302,7.256626139366452,16.0804226607808,-9999,41052.16588591667,0.170654296875,-0.249267578125,-0.83935546875,41052.16086191667,-0.9623743086736358,0.2177262206363438,0.3596129836931697,0.4234381914138794,-0.1559030115604401,-0.3595356643199921,0.002898901700973511,0.123872697353363,0.1012962460517883,XArbitraryZVertical,0.2070680180720036,0.01247559417627186,-0.4354504277207875,0.875985119739409,0.2021925896406174,-0.3519119918346405,-0.9139344096183777,41026.18377175,unknown,2,2020-03-09 10:24:22.004 +0100,605438687.8559839,0,44260.91,100.3644
2020-03-09 10:24:48.023 +0100,1583745886.999295,52.56389921746297,13.4102061601189,47.27488,0,222.8503668312302,7.256626139366452,16.0804226607808,-9999,41052.18095991667,0.1426849365234375,-0.3232879638671875,-0.8287200927734375,41052.17593491667,-0.9703491559305261,0.2182557575614493,0.365835098218825,0.565879762172699,-0.140087828040123,-0.4172117412090302,-0.03154604136943817,0.1084649264812469,0.07231557369232178,XArbitraryZVertical,0.2098945968301089,0.01040865152735276,-0.4383300685388077,0.873900782640906,0.2021984905004501,-0.3577292561531067,-0.9116718173027039,41026.18377175,unknown,2,2020-03-09 10:24:22.004 +0100,605438687.8559839,0,44260.91,100.3644
2020-03-09 10:24:48.025 +0100,1583745886.999295,52.56389921746297,13.4102061601189,47.27488,0,222.8503668312302,7.256626139366452,16.0804226607808,-9999,41052.19603291667,0.1075897216796875,-0.3555450439453125,-0.82122802734375,41052.19100791667,-0.9785920744028075,0.2200855256896599,0.3726566619845769,0.5225409269332886,0.007414011284708977,-0.3873617649078369,-0.07131162285804749,0.01607191562652588,0.08359479904174805,XArbitraryZVertical,0.2132491208951178,0.008714351668398701,-0.4411183112089645,0.8717014873873075,0.2033288180828094,-0.3640910387039185,-0.9088977575302124,41026.18377175,unknown,2,2020-03-09 10:24:22.004 +0100,605438687.8559839,0,44260.91,100.3644
2020-03-09 10:24:48.032 +0100,1583745886.999295,52.56389921746297,13.4102061601189,47.27488,0,222.8503668312302,7.256626139366452,16.0804226607808,-9999,41052.21110591667,0.096710205078125,-0.2897796630859375,-0.79376220703125,41052.20608191667,-0.986662592021024,0.2243228220184547,0.3781821749144773,0.4013891816139221,0.1555699110031128,-0.4301968514919281,-0.09913977980613708,0.01369011402130127,0.0848238468170166,XArbitraryZVertical,0.2165723308953134,0.008368682222656108,-0.4436692069687903,0.8695883709481053,0.2067275643348694,-0.3692317008972168,-0.9060527682304382,41026.18377175,unknown,2,2020-03-09 10:24:22.004 +0100,605438687.8559839,0,44260.91,100.3644
2020-03-09 10:24:48.047 +0100,1583745886.999295,52.56389921746297,13.4102061601189,47.27488,0,222.8503668312302,7.256626139366452,16.0804226607808,-9999,41052.22617891667,0.096435546875,-0.2032470703125,-0.7675933837890625,41052.22115491667,-0.9947117772203193,0.2304476043421501,0.3817929941859392,0.2949281930923462,0.2463592886924744,-0.4124837815761566,-0.1155640184879303,0.1083518862724304,0.1210704445838928,XArbitraryZVertical,0.2195017295682657,0.009279782594252491,-0.446159192627507,0.8675682965223347,0.2119671255350113,-0.3725849688053131,-0.903465747833252,41026.18377175,unknown,2,2020-03-09 10:24:22.004 +0100,605438687.8559839,0,44260.91,100.3644
2020-03-09 10:24:48.062 +0100,1583745886.999295,52.56389921746297,13.4102061601189,47.27488,0,222.8503668312302,7.256626139366452,16.0804226607808,-9999,41052.24125291667,0.073577880859375,-0.142120361328125,-0.79205322265625,41052.23622791667,-1.001733037449442,0.2369925654735513,0.3844711961827563,0.2783368825912476,0.2684428691864014,-0.3434448540210724,-0.1212070733308792,0.1718253195285797,0.133491575717926,XArbitraryZVertical,0.2221323408170262,0.01068978504232592,-0.4482234275349208,0.8658167749901987,0.2176406234502792,-0.3750689923763275,-0.9010859131813049,41026.18377175,unknown,2,2020-03-09 10:24:22.004 +0100,605438687.8559839,0,44260.91,100.3644
2020-03-09 10:24:48.077 +0100,1583745886.999295,52.56389921746297,13.4102061601189,47.27488,0,222.8503668312302,7.256626139366452,16.0804226607808,-9999,41052.25632591667,0.028045654296875,-0.1890716552734375,-0.917877197265625,41052.25130091667,-1.008248441718979,0.2436702269977422,0.3886830158122079,0.4945850372314453,0.3048851191997528,-0.312444269657135,-0.1626181155443192,0.2339539229869843,0.07049483060836792,XArbitraryZVertical,0.2254431237466149,0.01181801168321278,-0.4498834501656633,0.8640836864426418,0.2232697606086731,-0.3789699971675873,-0.8980714678764343,41026.18377175,unknown,2,2020-03-09 10:24:22.004 +0100,605438687.8559839,0,44260.91,100.3644
2020-03-09 10:24:48.092 +0100,1583745886.999295,52.56389921746297,13.4102061601189,47.27488,0,222.8503668312302,7.256626139366452,16.0804226607808,-9999,41052.27139891667,0.0013885498046875,-0.2923431396484375,-0.9385528564453125,41052.26637491667,-1.015259800299858,0.2518529572791753,0.3965892760164149,0.6687259674072266,0.4346274137496948,-0.2537561655044556,-0.2018135190010071,0.1972065567970276,-0.02459347248077393,XArbitraryZVertical,0.230648692863439,0.01260185196649839,-0.4511861650461516,0.8620169403643794,0.229857012629509,-0.3862746059894562,-0.8932847380638123,41026.18377175,unknown,2,2020-03-09 10:24:22.004 +0100,605438687.8559839,0,44260.91,100.3644
2020-03-09 10:24:48.108 +0100,1583745886.999295,52.56389921746297,13.4102061601189,47.27488,0,222.8503668312302,7.256626139366452,16.0804226607808,-9999,41052.28647191667,0.01123046875,-0.33282470703125,-0.90911865234375,41052.28144791667,-1.020641329827885,0.2617415019359359,0.4039147283217883,0.3924897015094757,0.6010293960571289,-0.1329376399517059,-0.2388732880353928,0.07686251401901245,-0.040607750415802,XArbitraryZVertical,0.2359802245334854,0.01441577566015757,-0.4515965361127123,0.8603290428992189,0.237940326333046,-0.3930210471153259,-0.8882110118865967,41026.18377175,unknown,2,2020-03-09 10:24:22.004 +0100,605438687.8559839,0,44260.91,100.3644
2020-03-09 10:24:48.123 +0100,1583745886.999295,52.56389921746297,13.4102061601189,47.27488,0,222.8503668312302,7.256626139366452,16.0804226607808,-9999,41052.30154591667,0.0510101318359375,-0.286346435546875,-0.8865814208984375,41052.29652091667,-1.022882473409624,0.2725324486570375,0.4067510061356682,0.06203636154532433,0.7001771330833435,-0.03497669100761414,-0.2359817177057266,0.06280651688575745,-0.0246051549911499,XArbitraryZVertical,0.2396157367887628,0.01808284629111441,-0.4509774652345158,0.8595792316062244,0.2472098767757416,-0.395627498626709,-0.8845146298408508,41026.18377175,unknown,2,2020-03-09 10:24:22.004 +0100,605438687.8559839,0,44260.91,100.3644
2020-03-09 10:24:48.138 +0100,1583745886.999295,52.56389921746297,13.4102061601189,47.27488,0,222.8503668312302,7.256626139366452,16.0804226607808,-9999,41052.31661891667,0.0961151123046875,-0.227691650390625,-0.879058837890625,41052.31159491667,-1.022509947967677,0.2834692406929898,0.4071792673301991,0.03798070922493935,0.7710700035095215,0.09743241220712662,-0.1915923357009888,0.1338479816913605,0.001802921295166016,XArbitraryZVertical,0.2422520946856753,0.02272125075466173,-0.4494535277816065,0.8595283482063626,0.2568212449550629,-0.3960207998752594,-0.8815953135490417,41026.18377175,unknown,2,2020-03-09 10:24:22.004 +0100,605438687.8559839,0,44260.91,100.3644
2020-03-09 10:24:48.153 +0100,1583745886.999295,52.56389921746297,13.4102061601189,47.27488,0,222.8503668312302,7.256626139366452,16.0804226607808,-9999,41052.33169191667,0.1802978515625,-0.2843017578125,-0.870697021484375,41052.32666791667,-1.021183899590763,0.2947310362241915,0.4106743013493748,0.4176406860351562,0.7847714424133301,0.1748007088899612,-0.1702167987823486,0.1715397536754608,-0.00174260139465332,XArbitraryZVertical,0.2462119718516441,0.0268504682833381,-0.4471216985196761,0.8595002588875655,0.2663294076919556,-0.399227648973465,-0.8773174285888672,41026.18377175,unknown,2,2020-03-09 10:24:22.004 +0100,605438687.8559839,0,44260.91,100.3644
2020-03-09 10:24:48.168 +0100,1583745886.999295,52.56389921746297,13.4102061601189,47.27488,0,222.8503668312302,7.256626139366452,16.0804226607808,-9999,41052.34676491667,0.2700653076171875,-0.36920166015625,-0.8354034423828125,41052.34174091667,-1.021864472772857,0.306627118796822,0.421215303956681,0.9170156717300415,0.7504599094390869,0.1491807997226715,-0.06109315156936646,0.08985802531242371,0.01266467571258545,XArbitraryZVertical,0.2532422376862175,0.02924056276254672,-0.4447288444889024,0.8586207411868263,0.2754613757133484,-0.4088698327541351,-0.870026707649231,41026.18377175,unknown,2,2020-03-09 10:24:22.004 +0100,605438687.8559839,0,44260.91,100.3644
2020-03-09 10:24:48.183 +0100,1583745886.999295,52.56389921746297,13.4102061601189,47.27488,0,222.8503668312302,7.256626139366452,16.0804226607808,-9999,41052.36183891667,0.2589874267578125,-0.385009765625,-0.857818603515625,41052.35681391667,-1.025456561800196,0.3189743554227349,0.4365109123099563,1.105541229248047,0.6961352229118347,0.06149791926145554,-0.0141252875328064,0.05358240008354187,0.02511489391326904,XArbitraryZVertical,0.2623469237417865,0.03023649998190892,-0.4428756891562849,0.856808488677041,0.2841879427433014,-0.4227801263332367,-0.8605197072029114,41026.18377175,unknown,2,2020-03-09 10:24:22.004 +0100,605438687.8559839,0,44260.91,100.3644
2020-03-09 10:24:48.198 +0100,1583745886.999295,52.56389921746297,13.4102061601189,47.27488,0,222.8503668312302,7.256626139366452,16.0804226607808,-9999,41052.37691191667,0.1912384033203125,-0.349334716796875,-0.981781005859375,41052.37188791667,-1.031193590129907,0.3317640829639837,0.4524607576338948,1.093666315078735,0.6747521758079529,-0.03664718940854073,-0.05789270997047424,0.06636497378349304,-0.03631341457366943,XArbitraryZVertical,0.2718065131557084,0.03091900820886842,-0.441672039005915,0.8544536229718815,0.292936384677887,-0.4371799826622009,-0.8503304719924927,41026.18377175,unknown,2,2020-03-09 10:24:22.004 +0100,605438687.8559839,0,44260.91,100.3644
2020-03-09 10:24:48.213 +0100,1583745886.999295,52.56389921746297,13.4102061601189,47.27488,0,222.8503668312302,7.256626139366452,16.0804226607808,-9999,41052.39198491667,0.17919921875,-0.3823394775390625,-1.082733154296875,41052.38696091667,-1.038040846315692,0.3451085892670131,0.4667261512151158,0.9479483366012573,0.6983062028884888,-0.09602876007556915,-0.1108810007572174,0.1006346344947815,-0.1413915753364563,XArbitraryZVertical,0.2806737961443396,0.03204246210068384,-0.4409412897395206,0.8519190239718958,0.3021164834499359,-0.4499650001525879,-0.8403909802436829,41026.18377175,unknown,2,2020-03-09 10:24:22.004 +0100,605438687.8559839,0,44260.91,100.3644
2020-03-09 10:24:48.228 +0100,1583745887.999288,52.56390362421179,13.41027489647408,47.16185,0,222.8504216713437,8.067356993668913,15.47057156125139,-9999,41052.40705891667,0.2103729248046875,-0.4632568359375,-0.9478759765625,41052.40203391667,-1.044043786301359,0.3586990437612199,0.476796517909903,0.5516772270202637,0.8229148387908936,-0.1072010844945908,-0.1215067505836487,0.05088919401168823,-0.2298468351364136,XArbitraryZVertical,0.2878467915324426,0.03439511889511564,-0.440243815353713,0.8497920243197569,0.3119029402732849,-0.4589353501796722,-0.8319224119186401,41026.18377175,unknown,2,2020-03-09 10:24:22.004 +0100,605438687.8559839,0,44260.91,100.3644
2020-03-09 10:24:48.243 +0100,1583745887.999288,52.56390362421179,13.41027489647408,47.16185,0,222.8504216713437,8.067356993668913,15.47057156125139,-9999,41052.42213191667,0.24322509765625,-0.537811279296875,-0.884429931640625,41052.41710691667,-1.048444282310866,0.37364238091555,0.4809147629843283,0.2292747348546982,0.9566476941108704,-0.2013677209615707,-0.1132369041442871,-0.0006620287895202637,-0.1224754452705383,XArbitraryZVertical,0.2928732238651705,0.03904046497587248,-0.4393870962730806,0.8483160714943576,0.3236067295074463,-0.462590366601944,-0.8254022598266602,41026.18377175,unknown,2,2020-03-09 10:24:22.004 +0100,605438687.8559839,0,44260.91,100.3644
2020-03-09 10:24:48.258 +0100,1583745887.999288,52.56390362421179,13.41027489647408,47.16185,0,222.8504216713437,8.067356993668913,15.47057156125139,-9999,41052.43720491667,0.269134521484375,-0.5669708251953125,-1.071075439453125,41052.43218091667,-1.054828946612388,0.3920469023610724,0.4815825518709927,0.2733232975006104,1.089890718460083,-0.4834235608577728,-0.0929914116859436,-0.07488381862640381,-0.1506003141403198,XArbitraryZVertical,0.2973192431847533,0.04572356675800726,-0.4392842085190922,0.8464867400615533,0.3386240899562836,-0.4631823003292084,-0.8190212249755859,41026.18377175,unknown,2,2020-03-09 10:24:22.004 +0100,605438687.8559839,0,44260.91,100.3644
2020-03-09 10:24:48.273 +0100,1583745887.999288,52.56390362421179,13.41027489647408,47.16185,0,222.8504216713437,8.067356993668913,15.47057156125139,-9999,41052.45227791667,0.2330322265625,-0.43023681640625,-1.168319702148438,41052.44725391667,-1.067561811516424,0.4145518711215564,0.4838088453202067,0.5621479153633118,1.131407260894775,-0.7183734774589539,-0.0874214768409729,-0.1018121540546417,-0.2608293294906616,XArbitraryZVertical,0.303471666160756,0.05273494054649423,-0.4409635290692911,0.8430154645123935,0.3565526008605957,-0.465154230594635,-0.8102479577064514,41026.18377175,unknown,2,2020-03-09 10:24:22.004 +0100,605438687.8559839,0,44260.91,100.3644
2020-03-09 10:24:48.288 +0100,1583745887.999288,52.56390362421179,13.41027489647408,47.16185,0,222.8504216713437,8.067356993668913,15.47057156125139,-9999,41052.46735191667,0.329132080078125,-0.3712615966796875,-1.110153198242188,41052.46232691667,-1.083329044776752,0.4391076991697175,0.4885336110434553,0.7570760250091553,1.11768364906311,-0.7204082012176514,-0.1314623057842255,0.0467744767665863,-0.3796451091766357,XArbitraryZVertical,0.3112041764405651,0.059384391262183,-0.4431171174440607,0.8386134562957636,0.3754009008407593,-0.4693315327167511,-0.7992509007453918,41026.18377175,unknown,2,2020-03-09 10:24:22.004 +0100,605438687.8559839,0,44260.91,100.3644
2020-03-09 10:24:48.303 +0100,1583745887.999288,52.56390362421179,13.41027489647408,47.16185,0,222.8504216713437,8.067356993668913,15.47057156125139,-9999,41052.48242491667,0.3999176025390625,-0.465576171875,-1.166748046875,41052.47739991667,-1.10297181734591,0.4637526055827887,0.495014650680717,1.065412759780884,0.9551060795783997,-0.9851372838020325,-0.06448522210121155,0.1037876009941101,-0.3231349587440491,XArbitraryZVertical,0.3198205668537236,0.06484309811808397,-0.44643855636429,0.8331882261849355,0.3936134874820709,-0.4750445485115051,-0.7870203256607056,41026.18377175,unknown,2,2020-03-09 10:24:22.004 +0100,605438687.8559839,0,44260.91,100.3644
2020-03-09 10:24:48.319 +0100,1583745887.999288,52.56390362421179,13.41027489647408,47.16185,0,222.8504216713437,8.067356993668913,15.47057156125139,-9999,41052.49749791667,0.454925537109375,-0.632110595703125,-1.010635375976562,41052.49247391667,-1.126989292500019,0.4890086991526786,0.500867853710725,0.6720044612884521,0.8608644604682922,-1.118542551994324,0.0176796019077301,-0.04783874750137329,-0.3467040657997131,XArbitraryZVertical,0.3285472957161865,0.06982829225870588,-0.4513729354166366,0.8267062015632587,0.4120496809482574,-0.4801869690418243,-0.7743613719940186,41026.18377175,unknown,2,2020-03-09 10:24:22.004 +0100,605438687.8559839,0,44260.91,100.3644
2020-03-09 10:24:48.334 +0100,1583745887.999288,52.56390362421179,13.41027489647408,47.16185,0,222.8504216713437,8.067356993668913,15.47057156125139,-9999,41052.51257091667,0.383514404296875,-0.662567138671875,-0.919219970703125,41052.50754691667,-1.144288806955778,0.5105438501548205,0.4929502069851269,-0.6126655340194702,0.9367828965187073,-1.159340381622314,0.02444815635681152,-0.1588790416717529,-0.2420356273651123,XArbitraryZVertical,0.3310683325523874,0.078056021524381,-0.4562608658203945,0.8222693976646928,0.4304732084274292,-0.4732269048690796,-0.7686020135879517,41026.18377175,unknown,2,2020-03-09 10:24:22.004 +0100,605438687.8559839,0,44260.91,100.3644
2020-03-09 10:24:48.349 +0100,1583745887.999288,52.56390362421179,13.41027489647408,47.16185,0,222.8504216713437,8.067356993668913,15.47057156125139,-9999,41052.52764491667,0.3845062255859375,-0.5425872802734375,-0.904571533203125,41052.52261991667,-1.154026859210121,0.5300840992939512,0.4713253568377135,-1.130275964736938,1.036446332931519,-1.270397663116455,-0.07482656836509705,-0.1748953461647034,-0.1374505162239075,XArbitraryZVertical,0.327801755205796,0.09054575645891641,-0.4606630383858389,0.819839569843077,0.4504782855510712,-0.4540675282478333,-0.7686949372291565,41026.18377175,unknown,2,2020-03-09 10:24:22.004 +0100,605438687.8559839,0,44260.91,100.3644
2020-03-09 10:24:48.364 +0100,1583745887.999288,52.56390362421179,13.41027489647408,47.16185,0,222.8504216713437,8.067356993668913,15.47057156125139,-9999,41052.54271791667,0.47021484375,-0.4725341796875,-0.9134979248046875,41052.53769391667,-1.164357212970492,0.5502692153022803,0.4493165086270465,-0.709007203578949,1.010266423225403,-1.246589779853821,-0.08651256561279297,-0.1082330048084259,-0.1367941498756409,XArbitraryZVertical,0.3247026174689264,0.1033361388090476,-0.4653145741177703,0.8169284431871395,0.4710141718387604,-0.4343499839305878,-0.7677797079086304,41026.18377175,unknown,2,2020-03-09 10:24:22.004 +0100,605438687.8559839,0,44260.91,100.3644
2020-03-09 10:24:48.379 +0100,1583745887.999288,52.56390362421179,13.41027489647408,47.16185,0,222.8504216713437,8.067356993668913,15.47057156125139,-9999,41052.55779091667,0.612701416015625,-0.6098480224609375,-0.572998046875,41052.55276691667,-1.176540891941608,0.5684202445898094,0.4341318797716339,-0.2676239907741547,0.7107609510421753,-1.075370073318481,0.03250312805175781,-0.1014523506164551,-0.02928119897842407,XArbitraryZVertical,0.3239241029438697,0.1130739697547999,-0.4699246224373235,0.8133007867329305,0.4883661270141602,-0.4206229746341705,-0.7645748853683472,41026.18377175,unknown,2,2020-03-09 10:24:22.004 +0100,605438687.8559839,0,44260.91,100.3644
2020-03-09 10:24:48.394 +0100,1583745887.999288,52.56390362421179,13.41027489647408,47.16185,0,222.8504216713437,8.067356993668913,15.47057156125139,-9999,41052.57286391667,0.590301513671875,-0.677734375,-0.4936981201171875,41052.56783991667,-1.187696856037392,0.5815932099752178,0.4195912889857687,-0.6679010987281799,0.4418696165084839,-1.120616912841797,0.1109942197799683,-0.2024568319320679,0.1901053786277771,XArbitraryZVertical,0.3222731699734387,0.1207771924473474,-0.4748198776477268,0.8099992516131148,0.5017023086547852,-0.4073872268199921,-0.7631057500839233,41026.18377175,unknown,2,2020-03-09 10:24:22.004 +0100,605438687.8559839,0,44260.91,100.3644
2020-03-09 10:24:48.409 +0100,1583745887.999288,52.56390362421179,13.41027489647408,47.16185,0,222.8504216713437,8.067356993668913,15.47057156125139,-9999,41052.58793791667,0.644378662109375,-0.691192626953125,-0.49737548828125,41052.58291291667,-1.195531187323805,0.5888504511813697,0.3997688837725732,-1.053678750991821,0.1088230460882187,-1.094239234924316,0.07757037878036499,-0.3431668281555176,0.2714096903800964,XArbitraryZVertical,0.3171292937009714,0.1281554192045856,-0.4802283471637255,0.8077039873530036,0.5116122364997864,-0.3892054557800293,-0.7660104036331177,41026.18377175,unknown,2,2020-03-09 10:24:22.004 +0100,605438687.8559839,0,44260.91,100.3644
2020-03-09 10:24:48.424 +0100,1583745887.999288,52.56390362421179,13.41027489647408,47.16185,0,222.8504216713437,8.067356993668913,15.47057156125139,-9999,41052.60301091667,0.719818115234375,-0.33001708984375,-0.41766357421875,41052.59798691667,-1.19186539549359,0.5876652611621072,0.3703647227804137,-2.567184448242188,-0.01848415099084377,-0.6195261478424072,0.1275463104248047,-0.3292336165904999,0.2784301042556763,XArbitraryZVertical,0.3056363621958712,0.1366839269855124,-0.4839050380783124,0.8085417702952046,0.5168272852897644,-0.3619554340839386,-0.7758078575134277,41026.18377175,unknown,2,2020-03-09 10:24:22.004 +0100,605438687.8559839,0,44260.91,100.3644
2020-03-09 10:24:48.439 +0100,1583745887.999288,52.56390362421179,13.41027489647408,47.16185,0,222.8504216713437,8.067356993668913,15.47057156125139,-9999,41052.61808391667,0.488739013671875,0.1804656982421875,-0.8265380859375,41052.61305991667,-1.170387224492018,0.5811620972420559,0.3304320242296127,-3.111429929733276,0.1032152771949768,-0.1912583112716675,0.1710368394851685,0.1288372278213501,0.4153322577476501,XArbitraryZVertical,0.2874529870417581,0.1485472666866161,-0.482718068782309,0.8138106609482633,0.5192962288856506,-0.3244517147541046,-0.7906090021133423,41026.18377175,unknown,2,2020-03-09 10:24:22.004 +0100,605438687.8559839,0,44260.91,100.3644
2020-03-09 10:24:48.454 +0100,1583745887.999288,52.56390362421179,13.41027489647408,47.16185,0,222.8504216713437,8.067356993668913,15.47057156125139,-9999,41052.63315691667,0.1981201171875,0.4057769775390625,-1.382949829101562,41052.62813291667,-1.153583093355831,0.5802680641511151,0.2990577633430648,-1.198429822921753,0.5000821948051453,-0.3482697606086731,-0.03517997264862061,0.4750885367393494,-0.02734470367431641,XArbitraryZVertical,0.2739217739563057,0.159276982561559,-0.4809912104231416,0.8174625429612487,0.5239138603210449,-0.2946199178695679,-0.799195408821106,41026.18377175,unknown,2,2020-03-09 10:24:22.004 +0100,605438687.8559839,0,44260.91,100.3644
2020-03-09 10:24:48.469 +0100,1583745887.999288,52.56390362421179,13.41027489647408,47.16185,0,222.8504216713437,8.067356993668913,15.47057156125139,-9999,41052.64823091667,0.273101806640625,0.13922119140625,-1.494247436523438,41052.64320591667,-1.158340622968557,0.5896224832779594,0.2938203403305924,0.5222450494766235,0.4665778875350952,-0.5142664909362793,-0.3464775085449219,0.6785298585891724,-0.698107898235321,XArbitraryZVertical,0.2745430773827605,0.1638917313922217,-0.4824785187428717,0.8154629704223089,0.5322175621986389,-0.2896109521389008,-0.7955312132835388,41026.18377175,unknown,2,2020-03-09 10:24:22.004 +0100,605438687.8559839,0,44260.91,100.3644
2020-03-09 10:24:48.484 +0100,1583745887.999288,52.56390362421179,13.41027489647408,47.16185,0,222.8504216713437,8.067356993668913,15.47057156125139,-9999,41052.66330391667,0.5509185791015625,-0.1588287353515625,-0.6003570556640625,41052.65827991667,-1.164852458399378,0.5991862062307836,0.2937858792239777,-0.3777286410331726,0.7008088231086731,-0.06993240863084793,-0.2667102813720703,0.428801953792572,-0.7038362622261047,XArbitraryZVertical,0.2773786913648741,0.166896584931086,-0.4838156474436078,0.8130983658673602,0.5398069620132446,-0.2895779609680176,-0.7904132008552551,41026.18377175,unknown,2,2020-03-09 10:24:22.004 +0100,605438687.8559839,0,44260.91,100.3644
2020-03-09 10:24:48.511 +0100,1583745887.999288,52.56390362421179,13.41027489647408,47.16185,0,222.8504216713437,8.067356993668913,15.47057156125139,-9999,41052.67837691667,0.5027008056640625,0.0784759521484375,-0.3602447509765625,41052.67335291667,-1.153158532094323,0.6092167787310669,0.2784884803378199,-1.919728517532349,0.9559352993965149,-0.05159042030572891,0.03433454036712646,0.2282134294509888,0.3382872343063354,XArbitraryZVertical,0.2729210729631656,0.1768168038449709,-0.4801316484291855,0.8146922504080304,0.5501786470413208,-0.2749026715755463,-0.7884998321533203,41026.18377175,unknown,2,2020-03-09 10:24:22.004 +0100,605438687.8559839,0,44260.91,100.3644
2020-03-09 10:24:48.525 +0100,1583745887.999288,52.56390362421179,13.41027489647408,47.16185,0,222.8504216713437,8.067356993668913,15.47057156125139,-9999,41052.69345091667,0.253021240234375,-0.0589447021484375,-0.88580322265625,41052.68842591667,-1.144789778086021,0.6206896121381867,0.2582002113475325,-0.2862160801887512,0.8882220387458801,-0.5962827801704407,-0.05962169170379639,0.3338193297386169,0.4262648224830627,XArbitraryZVertical,0.2670866178967362,0.1881725533511554,-0.4784298883610424,0.815083117146684,0.5623170137405396,-0.2553408443927765,-0.7865116596221924,41026.18377175,unknown,2,2020-03-09 10:24:22.004 +0100,605438687.8559839,0,44260.91,100.3644
