loggingTime(txt),accelerometerTimestamp_sinceReboot(s),accelerometerAccelerationX(G),accelerometerAccelerationY(G),accelerometerAccelerationZ(G),motionTimestamp_sinceReboot(s),motionYaw(rad),motionRoll(rad),motionPitch(rad),motionRotationRateX(rad/s),motionRotationRateY(rad/s),motionRotationRateZ(rad/s),motionUserAccelerationX(G),motionUserAccelerationY(G),motionUserAccelerationZ(G),motionAttitudeReferenceFrame(txt),motionQuaternionX(R),motionQuaternionY(R),motionQuaternionZ(R),motionQuaternionW(R),motionGravityX(G),motionGravityY(G),motionGravityZ(G),activityTimestamp_sinceReboot(s),activity(txt),activityActivityConfidence(Z),activityActivityStartDate(txt),altimeterTimestamp_sinceReboot(s),altimeterReset(bool),altimeterRelativeAltitude(m),altimeterPressure(kPa)
2020-03-09 10:59:38.106 +0100,42383.45637104167,-0.154205322265625,-0.3087615966796875,-0.9334869384765625,42383.45134704167,-1.956737427290105,-0.1895336779186347,0.2483594502808931,0.03404702991247177,-0.007320046424865723,0.01855899393558502,0.01930469274520874,-0.07477392256259918,0.01543539762496948,XArbitraryZVertical,-0.009044651843460216,-0.1547219063600243,-0.8260500758750061,0.5418675650362579,-0.1826202422380447,-0.2458140850067139,-0.9519586563110352,42380.17683241667,unknown,2,2020-03-09 10:59:34.793 +0100,605440765.5394508,0,44258.85,100.387
2020-03-09 10:59:38.117 +0100,42383.47144504167,-0.167877197265625,-0.276092529296875,-0.9430694580078125,42383.46642104167,-1.956656230284292,-0.19024189582369,0.2479260085736643,-0.04180546849966049,-0.1274165362119675,-0.008474620990455151,0.0291084349155426,-0.06336857378482819,0.01844686269760132,XArbitraryZVertical,-0.009452533860965289,-0.1547379835506635,-0.8260355644091407,0.5418781230057149,-0.1833145171403885,-0.2453939169645309,-0.9519336223602295,42380.17683241667,unknown,2,2020-03-09 10:59:34.793 +0100,605440765.5394508,0,44258.85,100.387
2020-03-09 10:59:38.118 +0100,42383.48652004167,-0.202972412109375,-0.2536773681640625,-0.9522857666015625,42383.48149504167,-1.957603681628083,-0.1919591215969424,0.2478374254784884,0.02649582736194134,-0.1184350326657295,-0.1066749542951584,0.003113329410552979,-0.02057726681232452,0.003122091293334961,XArbitraryZVertical,-0.01026014747830425,-0.1551623481429379,-0.8262858594807342,0.5413602173622264,-0.1849530786275864,-0.2453080415725708,-0.9516387581825256,42380.17683241667,unknown,2,2020-03-09 10:59:34.793 +0100,605440765.5394508,0,44258.85,100.387
2020-03-09 10:59:38.119 +0100,42383.50159404167,-0.1947784423828125,-0.2643280029296875,-0.9684906005859375,42383.49656904167,-1.959006715385526,-0.1929485032957419,0.2490846884348864,0.09807383269071579,-0.06100431084632874,-0.07809931039810181,-0.01713748276233673,-0.007161304354667664,-0.001131296157836914,XArbitraryZVertical,-0.01042840752737653,-0.1559298372378922,-0.8266295665107187,0.5406112341809408,-0.1858357042074203,-0.24651700258255,-0.9511542916297913,42380.17683241667,unknown,2,2020-03-09 10:59:34.793 +0100,605440765.5394508,0,44258.85,100.387
2020-03-09 10:59:38.133 +0100,42383.51666804167,-0.17547607421875,-0.2631378173828125,-0.9743499755859375,42383.51164304167,-1.959197279454352,-0.1937965147007265,0.2506997149251911,0.07861613482236862,-0.044498011469841,0.0007833922281861305,-0.001927301287651062,-0.01951244473457336,-0.02107506990432739,XArbitraryZVertical,-0.01034123145854343,-0.1568147034797278,-0.826636608541907,0.5403461007283447,-0.1865653097629547,-0.2480818629264832,-0.9506044387817383,42380.17683241667,unknown,2,2020-03-09 10:59:34.793 +0100,605440765.5394508,0,44258.85,100.387
2020-03-09 10:59:38.148 +0100,42383.53174204167,-0.1558074951171875,-0.22930908203125,-0.9618377685546875,42383.52671704167,-1.959012622203759,-0.1943000418370921,0.2513819948075695,0.001833640970289707,-0.009446447715163231,-0.002063693478703499,0.01153437793254852,-0.01439598202705383,-0.0240057110786438,XArbitraryZVertical,-0.01034363969380619,-0.1572290697101965,-0.8265671027630742,0.5403319850343807,-0.1870112121105194,-0.2487427592277527,-0.9503440856933594,42380.17683241667,unknown,2,2020-03-09 10:59:34.793 +0100,605440765.5394508,0,44258.85,100.387
2020-03-09 10:59:38.163 +0100,42383.54681604167,-0.173675537109375,-0.194061279296875,-0.977447509765625,42383.54179204167,-1.959283078193513,-0.1942762662817481,0.2514451667272156,-0.01573177054524422,-0.009131661616265774,-0.005464816931635141,0.0347478985786438,0.03188411891460419,-0.01667720079421997,XArbitraryZVertical,-0.0103373758862583,-0.1572469320013229,-0.8266387023631068,0.5402173315076729,-0.186985582113266,-0.2488039433956146,-0.9503330588340759,42380.17683241667,unknown,2,2020-03-09 10:59:34.793 +0100,605440765.5394508,0,44258.85,100.387
2020-03-09 10:59:38.179 +0100,42383.56189104167,-0.2204437255859375,-0.1926727294921875,-0.9797821044921875,42383.55686604167,-1.958913203482165,-0.1942310537674633,0.2520245016969996,0.109931156039238,0.02260351181030273,0.03055530041456223,0.01323845982551575,0.05530282855033875,-0.02724736928939819,XArbitraryZVertical,-0.0101272187287272,-0.1574721001516254,-0.8265245310481708,0.5403305687478398,-0.1869147717952728,-0.2493650168180466,-0.9501999616622925,42380.17683241667,unknown,2,2020-03-09 10:59:34.793 +0100,605440765.5394508,0,44258.85,100.387
2020-03-09 10:59:38.194 +0100,42383.57696504167,-0.2137603759765625,-0.252197265625,-0.9701995849609375,42383.57194004167,-1.958259245190529,-0.1935963770855578,0.2546474347887791,0.2249526977539062,0.07912007719278336,-0.02475655451416969,-0.03961515426635742,0.04603168368339539,-0.02757567167282104,XArbitraryZVertical,-0.009078007768218883,-0.1583696773854818,-0.8262842041815649,0.5404543260241884,-0.1861851811408997,-0.2519042193889618,-0.9496732950210571,42380.17683241667,unknown,2,2020-03-09 10:59:34.793 +0100,605440765.5394508,0,44258.85,100.387
2020-03-09 10:59:38.209 +0100,42383.59203904167,-0.169219970703125,-0.30364990234375,-0.94903564453125,42383.58701404167,-1.958254770939037,-0.1922221852324203,0.2578964861618729,0.1699246168136597,0.09222447127103806,-0.03444283828139305,-0.02903847396373749,0.002848982810974121,-0.02107954025268555,XArbitraryZVertical,-0.007598883140483408,-0.1593183531781076,-0.8262037645960937,0.5403212708996343,-0.1847226470708847,-0.2550471723079681,-0.9491198658943176,42380.17683241667,unknown,2,2020-03-09 10:59:34.793 +0100,605440765.5394508,0,44258.85,100.387
2020-03-09 10:59:38.224 +0100,42383.60711304167,-0.1541900634765625,-0.2814178466796875,-0.9272308349609375,42383.60208804167,-1.957757664185118,-0.1910682128742824,0.2593290000960853,0.01894523203372955,0.07904449105262756,0.05581514909863472,0.02570471167564392,-0.04570823907852173,0.004743814468383789,XArbitraryZVertical,-0.006680839389675472,-0.1595901636676815,-0.8260351845852828,0.5405109822996147,-0.1835576891899109,-0.256432056427002,-0.9489727020263672,42380.17683241667,unknown,2,2020-03-09 10:59:34.793 +0100,605440765.5394508,0,44258.85,100.387
2020-03-09 10:59:38.239 +0100,42383.62218704167,-0.16168212890625,-0.240631103515625,-0.931854248046875,42383.61716304167,-1.957085681874329,-0.1901664954439506,0.2585447161802614,-0.07172214239835739,0.05177918076515198,0.04237847030162811,0.02854900062084198,-0.02574494481086731,0.02210438251495361,XArbitraryZVertical,-0.006474960314713072,-0.1590300776488174,-0.8258776326055378,0.5409191162696363,-0.1827398687601089,-0.2556739151477814,-0.9493350386619568,42380.17683241667,unknown,2,2020-03-09 10:59:34.793 +0100,605440765.5394508,0,44258.85,100.387
2020-03-09 10:59:38.254 +0100,42383.63726204167,-0.1715545654296875,-0.218963623046875,-0.9339752197265625,42383.63223704167,-1.956887836776142,-0.1892912955953674,0.2574968404575621,-0.021779865026474,0.06020999699831009,0.004116205498576164,0.01475264132022858,0.0246487557888031,0.02057343721389771,XArbitraryZVertical,-0.006391917449861633,-0.1583683765679061,-0.8258551391540667,0.5411486205675153,-0.181959256529808,-0.2546607255935669,-0.9497572183609009,42380.17683241667,unknown,2,2020-03-09 10:59:34.793 +0100,605440765.5394508,0,44258.85,100.387
2020-03-09 10:59:38.269 +0100,42383.65233604167,-0.17449951171875,-0.222686767578125,-0.9276580810546875,42383.64731104167,-1.957144911844806,-0.1883647692677282,0.2571751937687474,-0.01359229907393456,0.0598229318857193,-0.02738596126437187,0.009539216756820679,0.0353851318359375,0.01603078842163086,XArbitraryZVertical,-0.006119898482983437,-0.1579862287415201,-0.8259362457386638,0.5411396862636473,-0.1810945272445679,-0.2543496787548065,-0.9500057697296143,42380.17683241667,unknown,2,2020-03-09 10:59:34.793 +0100,605440765.5394508,0,44258.85,100.387
2020-03-09 10:59:38.284 +0100,42383.66741004167,-0.1769256591796875,-0.245574951171875,-0.936431884765625,42383.66238504167,-1.957463939249439,-0.1876704981451572,0.2566842354672849,-0.03608322888612747,0.03979755938053131,0.003591395914554596,0.005103513598442078,0.02400031685829163,0.02203136682510376,XArbitraryZVertical,-0.005996076339419811,-0.1575979580979747,-0.8260378786221662,0.5410991001843398,-0.180458202958107,-0.253874808549881,-0.9502538442611694,42380.17683241667,unknown,2,2020-03-09 10:59:34.793 +0100,605440765.5394508,0,44258.85,100.387
2020-03-09 10:59:38.299 +0100,42383.68248404167,-0.1758270263671875,-0.2625885009765625,-0.928466796875,42383.67745904167,-1.956990391641085,-0.1869323342727227,0.2561793379724035,-0.03786709159612656,0.07843508571386337,0.06004341691732407,0.002854183316230774,0.007810652256011963,0.01408094167709351,XArbitraryZVertical,-0.005795599710901498,-0.1571944420547812,-0.8259254989583061,0.5413901291889466,-0.179780513048172,-0.2533864378929138,-0.9505126476287842,42380.17683241667,unknown,2,2020-03-09 10:59:34.793 +0100,605440765.5394508,0,44258.85,100.387
2020-03-09 10:59:38.314 +0100,42383.69755804167,-0.16839599609375,-0.2817840576171875,-0.9368133544921875,42383.69253404167,-1.95636954977066,-0.185630731734308,0.255553297478529,-0.05248251929879189,0.08686425536870956,0.03558414801955223,-0.0002918541431427002,-0.01713284850120544,0.02003931999206543,XArbitraryZVertical,-0.005385127691809263,-0.1565893519471594,-0.8257778703784341,0.5417947192727338,-0.1785724014043808,-0.2527807652950287,-0.9509015679359436,42380.17683241667,unknown,2,2020-03-09 10:59:34.793 +0100,605440765.5394508,0,44258.85,100.387
2020-03-09 10:59:38.329 +0100,42383.71263304167,-0.1695709228515625,-0.287628173828125,-0.938385009765625,42383.70760804167,-1.956080278839798,-0.184618662660411,0.2543437377638075,-0.1110958382487297,0.05816985294222832,0.04130075871944427,0.009269148111343384,-0.03017476201057434,0.0145685076713562,XArbitraryZVertical,-0.005284212245250003,-0.1558244188072171,-0.8257347210780365,0.5420819843002416,-0.1776659339666367,-0.2516103088855743,-0.9513816833496094,42380.17683241667,unknown,2,2020-03-09 10:59:34.793 +0100,605440765.5394508,0,44258.85,100.387
2020-03-09 10:59:38.344 +0100,42383.72770704167,-0.189605712890625,-0.2582244873046875,-0.94647216796875,42383.72268204167,-1.955605835387443,-0.1838069168521725,0.2521755920288273,-0.146889790892601,0.06640541553497314,0.06515975296497345,-0.007715582847595215,-0.0327468067407608,0.01175224781036377,XArbitraryZVertical,-0.005521020612496,-0.1547245545728927,-0.8256660615076121,0.5424990576030204,-0.1769928932189941,-0.249511331319809,-0.9520596861839294,42380.17683241667,unknown,2,2020-03-09 10:59:34.793 +0100,605440765.5394508,0,44258.85,100.387
2020-03-09 10:59:38.359 +0100,42383.74278104167,-0.178131103515625,-0.216278076171875,-0.9451751708984375,42383.73775604167,-1.954903239847921,-0.1832315179627096,0.2499665266352153,-0.104291595518589,0.03873840719461441,0.07591183483600616,-0.01306149363517761,-0.01085399091243744,0.006229043006896973,XArbitraryZVertical,-0.005849829079866903,-0.1536726748753076,-0.8255350744448671,0.5429936279278068,-0.176545038819313,-0.2473715245723724,-0.9527009725570679,42380.17683241667,unknown,2,2020-03-09 10:59:34.793 +0100,605440765.5394508,0,44258.85,100.387
2020-03-09 10:59:38.375 +0100,42383.75785504167,-0.178192138671875,-0.216552734375,-0.940582275390625,42383.75283004167,-1.953616581413338,-0.1829570490183081,0.249109264069189,0.02565082162618637,0.04432730376720428,0.1008586958050728,-0.002343997359275818,0.0361209511756897,0.01010197401046753,XArbitraryZVertical,-0.005878777688862292,-0.153253549265734,-0.8252086673723734,0.5436077483467667,-0.1763220727443695,-0.2465408146381378,-0.9529575705528259,42380.17683241667,unknown,2,2020-03-09 10:59:34.793 +0100,605440765.5394508,0,44258.85,100.387
2020-03-09 10:59:38.390 +0100,42383.77292904167,-0.173797607421875,-0.259979248046875,-0.9423065185546875,42383.76790504167,-1.952383063422365,-0.1826947451628053,0.2500247087428846,0.1054361015558243,0.02906293794512749,0.02384969592094421,-0.002162039279937744,0.03087398409843445,0.01219940185546875,XArbitraryZVertical,-0.005418423994682115,-0.1535575278262097,-0.824850180825042,0.5440705090515491,-0.1760310232639313,-0.2474278956651688,-0.9527814388275146,42380.17683241667,unknown,2,2020-03-09 10:59:34.793 +0100,605440765.5394508,0,44258.85,100.387
2020-03-09 10:59:38.405 +0100,42383.78800304167,-0.1712493896484375,-0.284576416015625,-0.9484710693359375,42383.78297904167,-1.952030293054899,-0.1824730878646074,0.2516432471842158,0.08412575721740723,0.01175638474524021,0.003847758285701275,0.003642082214355469,-0.02512960135936737,0.01411694288253784,XArbitraryZVertical,-0.004844268709934783,-0.1541552599415317,-0.8247122896771149,0.5441159420386297,-0.1757469177246094,-0.2489957809448242,-0.9524253606796265,42380.17683241667,unknown,2,2020-03-09 10:59:34.793 +0100,605440765.5394508,0,44258.85,100.387
2020-03-09 10:59:38.420 +0100,42383.80307804167,-0.1698455810546875,-0.260589599609375,-0.9629974365234375,42383.79805304167,-1.951551595007304,-0.1824567549454749,0.2525035207690358,0.02732916921377182,0.004376202821731567,0.03085660748183727,0.004442095756530762,-0.03474877774715424,0.003746449947357178,XArbitraryZVertical,-0.004558360116593501,-0.1545011232847339,-0.8245592771926747,0.544252228837111,-0.1756924390792847,-0.2498288750648499,-0.9522172212600708,42380.17683241667,unknown,2,2020-03-09 10:59:34.793 +0100,605440765.5394508,0,44258.85,100.387
2020-03-09 10:59:38.435 +0100,42383.81815204167,-0.173065185546875,-0.2354736328125,-0.97125244140625,42383.81312704167,-1.951143515780723,-0.1824359705275348,0.2529729077021861,0.0450335368514061,0.02964257076382637,0.001545955426990986,0.00765112042427063,0.004417210817337036,-0.01734614372253418,XArbitraryZVertical,-0.004386034140982917,-0.154686858802332,-0.8244357658003068,0.5443880194778022,-0.1756513565778732,-0.2502833604812622,-0.9521054625511169,42380.17683241667,unknown,2,2020-03-09 10:59:34.793 +0100,605440778.3857423,0,44258.25,100.3989
2020-03-09 10:59:38.450 +0100,42383.83322604167,-0.19024658203125,-0.2504119873046875,-0.9647979736328125,42383.82820104167,-1.951398968516011,-0.1816476025164484,0.253817550453082,0.05591875314712524,0.06637939810752869,-0.04578587412834167,0.001796290278434753,0.01562613248825073,-0.01921677589416504,XArbitraryZVertical,-0.003842893266612505,-0.1548145131821753,-0.824484257147002,0.5442823896701398,-0.1748624294996262,-0.251101016998291,-0.9520354270935059,42380.17683241667,unknown,2,2020-03-09 10:59:34.793 +0100,605440778.3857423,0,44258.25,100.3989
2020-03-09 10:59:38.471 +0100,42383.84830016667,-0.1919403076171875,-0.266937255859375,-0.952911376953125,42383.84327516667,-1.951627357289136,-0.1804565376141582,0.2540280298048876,-0.01634532399475574,0.08671130239963531,0.01590651646256447,-0.02003812789916992,-0.003640294075012207,-0.00479423999786377,XArbitraryZVertical,-0.003310270017974874,-0.1545754037423052,-0.8245428181387418,0.5442650093348321,-0.1737188845872879,-0.2513047456741333,-0.9521909952163696,42380.17683241667,unknown,2,2020-03-09 10:59:34.793 +0100,605440778.3857423,0,44258.25,100.3989
2020-03-09 10:59:38.480 +0100,42383.86337416667,-0.1922760009765625,-0.2736358642578125,-0.936248779296875,42383.85835016667,-1.951242674222969,-0.1792041490915379,0.2531375867299618,-0.08833034336566925,0.09552285075187683,0.04728441312909126,-0.01937520503997803,-0.01649573445320129,-0.0002835392951965332,XArbitraryZVertical,-0.003015059459801095,-0.1538736674111884,-0.824464305714618,0.5445845326111703,-0.1725660562515259,-0.250442773103714,-0.9526275992393494,42380.17683241667,unknown,2,2020-03-09 10:59:34.793 +0100,605440778.3857423,0,44258.25,100.3989
2020-03-09 10:59:38.495 +0100,42383.87844916667,-0.1775665283203125,-0.2557830810546875,-0.941680908203125,42383.87342416667,-1.950713115196196,-0.1779060033599748,0.251401563043768,-0.1263340413570404,0.09429594129323959,0.05444755405187607,-0.01827703416347504,-0.02226623892784119,0.0163116455078125,XArbitraryZVertical,-0.002928368130098094,-0.1528161486769884,-0.8243689846916206,0.5450269333532902,-0.1714059412479401,-0.2487617135047913,-0.9532772898674011,42380.17683241667,unknown,2,2020-03-09 10:59:34.793 +0100,605440778.3857423,0,44258.25,100.3989
2020-03-09 10:59:38.510 +0100,42383.89352316667,-0.1558990478515625,-0.23333740234375,-0.9517059326171875,42383.88849816667,-1.95049949329024,-0.1765872184207138,0.249857350589461,-0.06735315173864365,0.08497433364391327,0.01334082800894976,-0.007351607084274292,-0.008518651127815247,0.01219892501831055,XArbitraryZVertical,-0.002803598686168354,-0.1518300587485525,-0.8243541874139597,0.5453254548273558,-0.170215904712677,-0.2472657412290573,-0.9538795351982117,42380.17683241667,unknown,2,2020-03-09 10:59:34.793 +0100,605440778.3857423,0,44258.25,100.3989
2020-03-09 10:59:38.525 +0100,42383.90859716667,-0.15765380859375,-0.249359130859375,-0.9560394287109375,42383.90357216667,-1.950312689918478,-0.1753863092792541,0.2496364385378811,0.05469898879528046,0.08218173682689667,0.01306492555886507,0.01404954493045807,0.01453697681427002,-0.002405703067779541,XArbitraryZVertical,-0.002356711712280476,-0.151413108159998,-0.8243107291704695,0.5455091257534339,-0.1690797954797745,-0.2470516860485077,-0.9541370272636414,42380.17683241667,unknown,2,2020-03-09 10:59:34.793 +0100,605440778.3857423,0,44258.25,100.3989
2020-03-09 10:59:38.541 +0100,42383.92367116667,-0.168121337890625,-0.279266357421875,-0.944244384765625,42383.91864616667,-1.950014256258107,-0.1741453939231929,0.2508682257987151,0.08024933189153671,0.09335442632436752,-0.005000594072043896,0.01018801331520081,-0.001115366816520691,-0.001993477344512939,XArbitraryZVertical,-0.001475566394468939,-0.1515750089922794,-0.824197061276002,0.5456390485540054,-0.1678428053855896,-0.2482451051473618,-0.9540456533432007,42380.17683241667,unknown,2,2020-03-09 10:59:34.793 +0100,605440778.3857423,0,44258.25,100.3989
2020-03-09 10:59:38.556 +0100,42383.93874516667,-0.1579437255859375,-0.3028106689453125,-0.9415740966796875,42383.93372116667,-1.950050169504097,-0.1727438079734447,0.2512627623402906,-0.04128099605441093,0.09974756091833115,-0.006160633638501167,-0.001496419310569763,-0.04121485352516174,0.01167881488800049,XArbitraryZVertical,-0.0007895183548346646,-0.1513527823823033,-0.824196780876312,0.545702472781093,-0.1664886176586151,-0.2486272752285004,-0.9541833996772766,42380.17683241667,unknown,2,2020-03-09 10:59:34.793 +0100,605440778.3857423,0,44258.25,100.3989
2020-03-09 10:59:38.571 +0100,42383.95382016667,-0.1429443359375,-0.2826690673828125,-0.9410858154296875,42383.94879516667,-1.95033391058708,-0.1713353602434876,0.2499624372934228,-0.1235121786594391,0.07789641618728638,0.001486432738602161,0.007254749536514282,-0.05544453859329224,0.01316088438034058,XArbitraryZVertical,-0.0005968414558481265,-0.1504402892750255,-0.8243106195474961,0.5457831397436748,-0.1651995182037354,-0.2473675608634949,-0.954734742641449,42380.17683241667,unknown,2,2020-03-09 10:59:34.793 +0100,605440778.3857423,0,44258.25,100.3989
2020-03-09 10:59:38.586 +0100,42383.96889416667,-0.14794921875,-0.2347564697265625,-0.9383087158203125,42383.96386916667,-1.950458323198878,-0.1704434690615933,0.2483665742640805,-0.09259900450706482,0.0565948560833931,0.01533753424882889,0.02178972959518433,-0.01899673044681549,0.01273441314697266,XArbitraryZVertical,-0.0006881114283247934,-0.1495485473801931,-0.8243887411528333,0.5459101352618314,-0.1644146740436554,-0.2458209842443466,-0.9552695155143738,42380.17683241667,unknown,2,2020-03-09 10:59:34.793 +0100,605440778.3857423,0,44258.25,100.3989
2020-03-09 10:59:38.601 +0100,42383.98396816667,-0.1539764404296875,-0.2214508056640625,-0.9490966796875,42383.97894316667,-1.950240046891615,-0.1698959947257499,0.2474968931687437,-0.002908250316977501,0.01219544932246208,0.03226788341999054,0.01597753167152405,0.01022003591060638,0.01726126670837402,XArbitraryZVertical,-0.000691154712044064,-0.1490458258742812,-0.8243530973403871,0.5461013079817437,-0.163927748799324,-0.2449778914451599,-0.9555697441101074,42380.17683241667,unknown,2,2020-03-09 10:59:34.793 +0100,605440778.3857423,0,44258.25,100.3989
2020-03-09 10:59:38.616 +0100,42383.99904216667,-0.1739044189453125,-0.2501068115234375,-0.9470367431640625,42383.99401716667,-1.949688379949101,-0.1698265005708486,0.2482458433175318,0.1008327156305313,0.02203914150595665,0.006973642855882645,0.003352567553520203,0.01779724657535553,0.01159840822219849,XArbitraryZVertical,-0.0004103162051046713,-0.1493312482171721,-0.8241819944769487,0.5462819811487004,-0.1638302952051163,-0.2457039505243301,-0.9554000496864319,42380.17683241667,unknown,2,2020-03-09 10:59:34.793 +0100,605440778.3857423,0,44258.25,100.3989
2020-03-09 10:59:38.631 +0100,42384.01411616667,-0.16729736328125,-0.30389404296875,-0.960205078125,42384.00909216667,-1.949666604346568,-0.1694213282885852,0.2500533988133713,0.1191890239715576,0.03259871155023575,-0.02711744792759418,-0.01053746044635773,-0.002652615308761597,0.007990539073944092,XArbitraryZVertical,0.0002677023398081648,-0.14995475867959,-0.8241261036315936,0.5461956221736621,-0.1633680313825607,-0.2474557012319565,-0.9550269842147827,42380.17683241667,unknown,2,2020-03-09 10:59:34.793 +0100,605440778.3857423,0,44258.25,100.3989
2020-03-09 10:59:38.646 +0100,42384.02919116667,-0.1394805908203125,-0.30975341796875,-0.950225830078125,42384.02416616667,-1.949595158696292,-0.1686799507808091,0.2516436035437962,0.04275444149971008,0.06563068926334381,0.009184367954730988,0.004847228527069092,-0.0644361823797226,-0.005568146705627441,XArbitraryZVertical,0.001026705122782035,-0.1503980994422487,-0.8240616817350939,0.5461698387449303,-0.1625936776399612,-0.2489961385726929,-0.9547587037086487,42380.17683241667,unknown,2,2020-03-09 10:59:34.793 +0100,605440778.3857423,0,44258.25,100.3989
2020-03-09 10:59:38.661 +0100,42384.04426516667,-0.1470489501953125,-0.288421630859375,-0.93377685546875,42384.03924016667,-1.949401779088479,-0.1676108108853082,0.2514086207538355,-0.07937144488096237,0.08324488997459412,0.009815703146159649,0.02210086584091187,-0.0609864741563797,0.004764139652252197,XArbitraryZVertical,0.001415511087950173,-0.1500105343214936,-0.8240148813145912,0.5463462072164529,-0.1615825742483139,-0.248768538236618,-0.9549896717071533,42380.17683241667,unknown,2,2020-03-09 10:59:34.793 +0100,605440778.3857423,0,44258.25,100.3989
2020-03-09 10:59:38.676 +0100,42384.05933916667,-0.147613525390625,-0.2630462646484375,-0.92950439453125,42384.05431416667,-1.949909336736485,-0.1662188650951482,0.2498827813837293,-0.1181383728981018,0.07460729777812958,-0.0283180009573698,0.01160247623920441,-0.03626526892185211,0.02345830202102661,XArbitraryZVertical,0.001521143918401403,-0.1490108656698266,-0.8241957326324152,0.5463466539092112,-0.1603157371282578,-0.2472903877496719,-0.9555869102478027,42380.17683241667,unknown,2,2020-03-09 10:59:34.793 +0100,605440778.3857423,0,44258.25,100.3989
2020-03-09 10:59:38.692 +0100,42384.07441316667,-0.1515960693359375,-0.2272796630859375,-0.9339599609375,42384.06938816667,-1.950144700323827,-0.1649773179872452,0.2483493150167469,-0.07646355777978897,0.07454805076122284,0.02437297254800797,0.01157662272453308,-0.01724366843700409,0.02665406465530396,XArbitraryZVertical,0.00158336275264806,-0.1480487128422181,-0.8243023545205163,0.5464472926223677,-0.15919129550457,-0.2458042502403259,-0.9561581611633301,42380.17683241667,unknown,2,2020-03-09 10:59:34.793 +0100,605440778.3857423,0,44258.25,100.3989
2020-03-09 10:59:38.706 +0100,42384.08948716667,-0.144195556640625,-0.2452545166015625,-0.941375732421875,42384.08446316667,-1.949975913241268,-0.1637971457050474,0.2476609029792833,-0.007133754901587963,0.08646143972873688,-0.006143922917544842,0.004890903830528259,0.01811493933200836,0.01675409078598022,XArbitraryZVertical,0.001888312367030542,-0.1474462624036082,-0.8242745688897167,0.5466509737607198,-0.1580903083086014,-0.2451369017362595,-0.9565120935440063,42380.17683241667,unknown,2,2020-03-09 10:59:34.793 +0100,605440778.3857423,0,44258.25,100.3989
2020-03-09 10:59:38.722 +0100,42384.10456116667,-0.12957763671875,-0.277069091796875,-0.924072265625,42384.09953716667,-1.95067431198717,-0.1623104511671414,0.2481406391279775,0.02950445748865604,0.09145010262727737,-0.08483746647834778,0.01245231926441193,0.0003457069396972656,0.01525449752807617,XArbitraryZVertical,0.002584749479454954,-0.1472357946172685,-0.824450175965319,0.5464400405738236,-0.1566490679979324,-0.2456019818782806,-0.9566298723220825,42380.17683241667,unknown,2,2020-03-09 10:59:34.793 +0100,605440778.3857423,0,44258.25,100.3989
2020-03-09 10:59:38.737 +0100,42384.11963616667,-0.1317596435546875,-0.2818450927734375,-0.901092529296875,42384.11461116667,-1.951880477655409,-0.1604663177460136,0.2485811852083966,-0.04641516879200935,0.1160823404788971,-0.06256955116987228,0.02730266749858856,-0.03291873633861542,0.043831467628479,XArbitraryZVertical,0.003380362519562041,-0.1469130891260013,-0.8247642222458663,0.5460485407671821,-0.1548673510551453,-0.2460290044546127,-0.9568102359771729,42380.17683241667,unknown,2,2020-03-09 10:59:34.793 +0100,605440778.3857423,0,44258.25,100.3989
2020-03-09 10:59:38.752 +0100,42384.13471016667,-0.1471405029296875,-0.294830322265625,-0.879669189453125,42384.12968516667,-1.953424913423763,-0.1578756061966258,0.2474979281380986,-0.1460915058851242,0.1749375313520432,-0.1270870864391327,0.02066898345947266,-0.03686800599098206,0.05637866258621216,XArbitraryZVertical,0.00403153261422211,-0.1457679918194593,-0.8252123523172362,0.5456738708651129,-0.1524298340082169,-0.2449789047241211,-0.9574708938598633,42380.17683241667,unknown,2,2020-03-09 10:59:34.793 +0100,605440778.3857423,0,44258.25,100.3989
2020-03-09 10:59:38.767 +0100,42384.14978416667,-0.170013427734375,-0.301300048828125,-0.8562164306640625,42384.14475916667,-1.956414665823684,-0.1540027768878025,0.244962234764254,-0.2699551284313202,0.2400757670402527,-0.1789665371179581,-0.00984664261341095,-0.05965183675289154,0.08610647916793823,XArbitraryZVertical,0.004702545031559502,-0.1436853915027512,-0.8260929137662181,0.5448878907209581,-0.1488153785467148,-0.2425196915864944,-0.9586647748947144,42380.17683241667,unknown,2,2020-03-09 10:59:34.793 +0100,605440778.3857423,0,44258.25,100.3989
2020-03-09 10:59:38.782 +0100,42384.16485816667,-0.19061279296875,-0.2855682373046875,-0.82403564453125,42384.15983416667,-1.959746265647206,-0.1491196362026107,0.2400776175826365,-0.4333753883838654,0.3015947639942169,-0.1550339013338089,-0.0257079154253006,-0.06352370977401733,0.1043239235877991,XArbitraryZVertical,0.005117133948931516,-0.1403701749255999,-0.8271300987394818,0.5441742760275843,-0.1443066000938416,-0.2377780228853226,-0.9605400562286377,42380.17683241667,unknown,2,2020-03-09 10:59:34.793 +0100,605440778.3857423,0,44258.25,100.3989
2020-03-09 10:59:38.797 +0100,42384.17993216667,-0.208343505859375,-0.2804412841796875,-0.7960052490234375,42384.17490816667,-1.963842055993452,-0.143365480357239,0.2329926150407974,-0.5649804472923279,0.321811318397522,-0.2422526329755783,-0.05564309656620026,-0.05161258578300476,0.1474767923355103,XArbitraryZVertical,0.005238832068378452,-0.1359179161381421,-0.8284322174916483,0.5433220258114431,-0.1390143632888794,-0.230890303850174,-0.9629977345466614,42380.17683241667,unknown,2,2020-03-09 10:59:34.793 +0100,605440778.3857423,0,44258.25,100.3989
2020-03-09 10:59:38.812 +0100,42384.19500716667,-0.2363739013671875,-0.3010406494140625,-0.7651519775390625,42384.18998216667,-1.969727167767901,-0.1361185633790392,0.2242434920166595,-0.7021440863609314,0.3911385238170624,-0.3483797013759613,-0.07604345679283142,-0.05807402729988098,0.1699393391609192,XArbitraryZVertical,0.005420446435876376,-0.1303780565821679,-0.8302557415826418,0.5418925173085215,-0.132301077246666,-0.2223688662052155,-0.9659443497657776,42380.17683241667,unknown,2,2020-03-09 10:59:34.793 +0100,605440778.3857423,0,44258.25,100.3989
2020-03-09 10:59:38.827 +0100,42384.21008116667,-0.1678619384765625,-0.312469482421875,-0.757354736328125,42384.20505616667,-1.977905344860755,-0.1302707879200362,0.2140517300011194,-0.7844778299331665,0.188652291893959,-0.5083179473876953,-0.08079612255096436,-0.09681528806686401,0.2043265104293823,XArbitraryZVertical,0.004513162357198466,-0.1246211703454175,-0.832730171533573,0.5394530054972261,-0.1269380301237106,-0.2124208956956863,-0.9688984155654907,42380.17683241667,unknown,2,2020-03-09 10:59:34.793 +0100,605440778.3857423,0,44258.25,100.3989
2020-03-09 10:59:38.842 +0100,42384.22515516667,-0.1626434326171875,-0.3090667724609375,-0.7264251708984375,42384.22013016667,-1.987625977829881,-0.1250245921968666,0.2023490873242625,-0.9374273419380188,0.2673970460891724,-0.5444055795669556,-0.04570796340703964,-0.1114998757839203,0.2145965099334717,XArbitraryZVertical,0.002898347067316519,-0.1183895405838098,-0.8356393890080842,0.5363601587687127,-0.1221549212932587,-0.2009710371494293,-0.9719510078430176,42380.17683241667,unknown,2,2020-03-09 10:59:34.793 +0100,605440778.3857423,0,44258.25,100.3989
2020-03-09 10:59:38.857 +0100,42384.24022916667,-0.13714599609375,-0.2661895751953125,-0.7196807861328125,42384.23520516667,-1.997686350084011,-0.1195621552753918,0.1886709193209233,-0.9816765189170837,0.1394090205430984,-0.5082798600196838,-0.04304210841655731,-0.1155941486358643,0.2471233010292053,XArbitraryZVertical,0.0008813370272345081,-0.1112574249210695,-0.838657527392387,0.5331739697533341,-0.1171608492732048,-0.1875535696744919,-0.975242018699646,42380.17683241667,unknown,2,2020-03-09 10:59:34.793 +0100,605440778.3857423,0,44258.25,100.3989
2020-03-09 10:59:38.872 +0100,42384.25530316667,-0.232696533203125,-0.2783660888671875,-0.66680908203125,42384.25027916667,-2.007091060131803,-0.1152949350210594,0.1752974264036466,-0.9827746152877808,0.2395608723163605,-0.5937529802322388,-0.02387022972106934,-0.09178982675075531,0.2584567070007324,XArbitraryZVertical,-0.001448756068994886,-0.1045429369968196,-0.8414581551557978,0.5301100272831822,-0.1132766529917717,-0.1744010150432587,-0.9781373739242554,42380.17683241667,unknown,2,2020-03-09 10:59:34.793 +0100,605440778.3857423,0,44258.25,100.3989
2020-03-09 10:59:38.887 +0100,42384.27037816667,-0.24224853515625,-0.2905120849609375,-0.67578125,42384.26535316667,-2.020936679265618,-0.1076449206618984,0.1599351464189794,-1.266014337539673,0.4327468574047089,-0.97343909740448,-0.1485735327005386,-0.1252165883779526,0.3164691925048828,XArbitraryZVertical,-0.003031213784519028,-0.09606837315094617,-0.8454349834255425,0.5253581728228102,-0.10606599599123,-0.159254178404808,-0.981523334980011,42380.17683241667,unknown,2,2020-03-09 10:59:34.793 +0100,605440778.3857423,0,44258.25,100.3989
2020-03-09 10:59:38.902 +0100,42384.28545216667,-0.1775665283203125,-0.2518463134765625,-0.697113037109375,42384.28042716667,-2.039909600357419,-0.09799524902728432,0.1393491765041183,-1.714395523071289,0.4759434163570404,-1.184825778007507,-0.1453592479228973,-0.1516144871711731,0.3097742795944214,XArbitraryZVertical,-0.005237393662086457,-0.08482253260044173,-0.8507814776015226,0.5186024089197582,-0.09689009189605713,-0.1388986259698868,-0.9855554103851318,42380.17683241667,unknown,2,2020-03-09 10:59:34.793 +0100,605440778.3857423,0,44258.25,100.3989
2020-03-09 10:59:38.918 +0100,42384.30052616667,-0.11370849609375,-0.1533050537109375,-0.744842529296875,42384.29550116667,-2.060665686917611,-0.08798299773876597,0.112241427902125,-2.087247371673584,0.4930461347103119,-1.190900325775146,-0.0675303041934967,-0.1075231432914734,0.2798114418983459,XArbitraryZVertical,-0.008816965024841108,-0.07064223405692717,-0.8565612670326811,0.5111111847459876,-0.0873166099190712,-0.1120059043169022,-0.9898638725280762,42380.17683241667,unknown,2,2020-03-09 10:59:34.793 +0100,605440778.3857423,0,44258.25,100.3989
2020-03-09 10:59:38.933 +0100,42384.31560016667,-0.0849456787109375,-0.0842132568359375,-0.815460205078125,42384.31057516667,-2.081793104614137,-0.07907400643864849,0.08166698152901863,-2.133455514907837,0.4114978909492493,-1.267784714698792,-0.03498078882694244,-0.07172942906618118,0.2487103343009949,XArbitraryZVertical,-0.01346019784602564,-0.05515817482774784,-0.862280262704768,0.5032384708972613,-0.07872835546731949,-0.08157623559236526,-0.9935528039932251,42380.17683241667,unknown,2,2020-03-09 10:59:34.793 +0100,605440778.3857423,0,44258.25,100.3989
2020-03-09 10:59:38.948 +0100,42384.33067416667,-0.0783233642578125,-0.0639495849609375,-0.86199951171875,42384.32565016667,-2.104190143147936,-0.07190303903654288,0.05283900565048225,-1.870327353477478,0.344677060842514,-1.397018909454346,-0.008109003305435181,-0.02221343666315079,0.1592778563499451,XArbitraryZVertical,-0.01811742327067371,-0.0407398916751957,-0.8680704020267166,0.4944347312166942,-0.07174083590507507,-0.05281442031264305,-0.9960240125656128,42380.17683241667,unknown,2,2020-03-09 10:59:34.793 +0100,605440778.3857423,0,44258.25,100.3989
2020-03-09 10:59:38.985 +0100,42384.34574916667,-0.0964202880859375,-0.0472564697265625,-0.913299560546875,42384.34072416667,-2.127638063152981,-0.06621254453140576,0.02872354335727003,-1.553030848503113,0.280833512544632,-1.46889340877533,-0.01218702644109726,-0.03523020446300507,0.1353976726531982,XArbitraryZVertical,-0.0219646589156511,-0.02861770754261612,-0.8738777661667951,0.4848052257469921,-0.06613688170909882,-0.0287195947021246,-0.9973971843719482,42380.17683241667,unknown,2,2020-03-09 10:59:34.793 +0100,605440778.3857423,0,44258.25,100.3989
2020-03-09 10:59:38.987 +0100,42384.36082316667,-0.1076507568359375,-0.023681640625,-0.9362945556640625,42384.35579816667,-2.151146539557049,-0.06189970965023887,0.007870197828865853,-1.449262738227844,0.2418276220560074,-1.45918869972229,-0.04182571172714233,-0.03221479058265686,0.073783278465271,XArbitraryZVertical,-0.02535790146216507,-0.01816645277649929,-0.8794923635274623,0.4748893837318892,-0.06185827404260635,-0.007870116271078587,-0.9980539083480835,42380.17683241667,unknown,2,2020-03-09 10:59:34.793 +0100,605440778.3857423,0,44258.25,100.3989
2020-03-09 10:59:38.993 +0100,42384.37589716667,-0.08795166015625,-0.0046844482421875,-0.9688873291015625,42384.37087216667,-2.174700609887283,-0.05834538718492167,-0.01343475798647426,-1.581071972846985,0.2441210895776749,-1.510372042655945,-0.04934421926736832,-0.0371159128844738,0.06191378831863403,XArbitraryZVertical,-0.02894631702870058,-0.007613221091005142,-0.8849105743031366,0.4647982248192583,-0.05830702558159828,0.01343435421586037,-0.9982082843780518,42380.17683241667,unknown,2,2020-03-09 10:59:34.793 +0100,605440778.3857423,0,44258.25,100.3989
2020-03-09 10:59:39.008 +0100,42384.39097116667,-0.0450897216796875,-0.000244140625,-0.9864501953125,42384.38594616667,-2.199902079436518,-0.05511082821506877,-0.03695233533999463,-1.695182323455811,0.2679084241390228,-1.6613609790802,-0.02126433700323105,-0.03608918562531471,0.02467089891433716,XArbitraryZVertical,-0.03292754581069953,0.003961985621530145,-0.8904638221771805,0.4538436721615766,-0.05504533275961876,0.03694392740726471,-0.9978001713752747,42380.17683241667,unknown,2,2020-03-09 10:59:34.793 +0100,605440778.3857423,0,44258.25,100.3989
2020-03-09 10:59:39.023 +0100,42384.40604516667,0.0059814453125,-0.000701904296875,-0.9917449951171875,42384.40102116667,-2.227725174066999,-0.05245338585933109,-0.06055856946508358,-1.602790951728821,0.2651922702789307,-1.849159002304077,0.007243059575557709,-0.06076528877019882,0.01034384965896606,XArbitraryZVertical,-0.03687514033458236,0.01559487830293015,-0.8963394101885132,0.4415570097118866,-0.05233322829008102,0.06052156165242195,-0.9967940449714661,42380.17683241667,unknown,2,2020-03-09 10:59:34.793 +0100,605440778.3857423,0,44258.25,100.3989
2020-03-09 10:59:39.038 +0100,42384.42112016667,0.0277252197265625,0.0298919677734375,-1.007278442382812,42384.41609516667,-2.257843090173908,-0.05080041070972559,-0.08203346077712781,-1.453057408332825,0.2436907440423965,-1.969231247901917,0.06940619647502899,-0.0785992443561554,0.001470208168029785,XArbitraryZVertical,-0.04046838994336672,0.02620307525691321,-0.9024545202488867,0.4280787690215969,-0.05060780420899391,0.08194148540496826,-0.9953514337539673,42380.17683241667,unknown,2,2020-03-09 10:59:34.793 +0100,605440778.3857423,0,44258.25,100.3989
2020-03-09 10:59:39.053 +0100,42384.43619416667,-0.0168609619140625,0.12451171875,-1.016021728515625,42384.43116916667,-2.288832273582658,-0.04968121022105594,-0.1016454865085967,-1.357645869255066,0.2929582595825195,-1.973372340202332,0.07712924480438232,-0.07157787680625916,-0.01366734504699707,XArbitraryZVertical,-0.04358870089346989,0.03597913999475945,-0.9084907417304395,0.4140650533391329,-0.04940445348620415,0.1014705449342728,-0.9936110377311707,42380.17683241667,unknown,2,2020-03-09 10:59:34.793 +0100,605440778.3857423,0,44258.25,100.3989
2020-03-09 10:59:39.068 +0100,42384.45126816667,-0.0835723876953125,0.2551422119140625,-1.063186645507812,42384.44624316667,-2.319246823279334,-0.04830265935968557,-0.1198766503896171,-1.247888684272766,0.3285514116287231,-1.907175421714783,0.008279360830783844,0.04860872030258179,-0.03290116786956787,XArbitraryZVertical,-0.04603158826502313,0.0452590738704937,-0.9141615351526953,0.4001766646623481,-0.04793736338615417,0.1195897459983826,-0.9916654229164124,42380.17683241667,unknown,2,2020-03-09 10:59:34.793 +0100,605440778.3857423,0,44258.25,100.3989
2020-03-09 10:59:39.083 +0100,42384.46634216667,-0.1237030029296875,0.3350982666015625,-1.14190673828125,42384.46131716667,-2.348480960981475,-0.04668827808060629,-0.1359342913275901,-1.042158842086792,0.396386981010437,-1.838564038276672,-0.03733199834823608,0.1196270883083344,-0.07349109649658203,XArbitraryZVertical,-0.04770542290759507,0.05363245955669933,-0.9194039746610624,0.3867091771501373,-0.04624078050255775,0.1355160474777222,-0.9896954894065857,42380.17683241667,unknown,2,2020-03-09 10:59:34.793 +0100,605440778.3857423,0,44258.25,100.3989
2020-03-09 10:59:39.098 +0100,42384.48141616667,-0.1144561767578125,0.321868896484375,-1.181045532226562,42384.47639216667,-2.376635901712426,-0.04391810698342383,-0.1488613485208777,-0.8531280159950256,0.5019696950912476,-1.77724289894104,-0.08303152024745941,0.1942944377660751,-0.1703838706016541,XArbitraryZVertical,-0.048061061454098,0.06079990741746688,-0.9243413670183416,0.3736125465288413,-0.04341843724250793,0.1483121663331985,-0.9879869818687439,42380.17683241667,unknown,2,2020-03-09 10:59:34.793 +0100,605440778.3857423,0,44258.25,100.3989
2020-03-09 10:59:39.113 +0100,42384.49649016667,-0.075531005859375,0.2249603271484375,-1.188919067382812,42384.49146616667,-2.403991625270406,-0.03988666265186751,-0.1604439373018639,-0.8787524104118347,0.5930353999137878,-1.748409628868103,-0.07509259134531021,0.1621135324239731,-0.1946741342544556,XArbitraryZVertical,-0.04742430865492114,0.06756687453616216,-0.9289995767529204,0.3607565739426052,-0.03936393558979034,0.1597564518451691,-0.9863712787628174,42380.17683241667,unknown,2,2020-03-09 10:59:34.793 +0100,605440778.3857423,0,44258.25,100.3989
2020-03-09 10:59:39.128 +0100,42384.51156516667,-0.0269012451171875,0.134918212890625,-1.173828125,42384.50654016667,-2.431322861272885,-0.0345011142371519,-0.1751358669399336,-1.26149845123291,0.7380815148353577,-1.760510444641113,-0.02564980089664459,0.01461732387542725,-0.2026048302650452,XArbitraryZVertical,-0.04651676469818501,0.07601154160870051,-0.9333435120017584,0.3477474151753674,-0.03396660834550858,0.1742419302463531,-0.9841168522834778,42380.17683241667,unknown,2,2020-03-09 10:59:34.793 +0100,605440778.3857423,0,44258.25,100.3989
2020-03-09 10:59:39.144 +0100,42384.52663916667,0.01141357421875,0.1427154541015625,-1.14593505859375,42384.52161416667,-2.459329007652767,-0.02695088851664737,-0.1979812439094513,-1.887036561965942,0.9558163285255432,-1.797568917274475,-0.0004802793264389038,-0.06177085638046265,-0.193718433380127,XArbitraryZVertical,-0.04569702870281822,0.0886396600484014,-0.937232434171489,0.3341407975974268,-0.02642122097313404,0.1966904103755951,-0.9801095724105835,42380.17683241667,unknown,2,2020-03-09 10:59:34.793 +0100,605440778.3857423,0,44258.25,100.3989
2020-03-09 10:59:39.158 +0100,42384.54171316667,0.0198974609375,0.3050384521484375,-1.117904663085938,42384.53668816667,-2.487588780763395,-0.01678457555105066,-0.2300505124030799,-2.400314331054688,1.178990602493286,-1.749685049057007,0.0352470725774765,-0.04154747724533081,-0.148491382598877,XArbitraryZVertical,-0.04475896710172273,0.1060083556555063,-0.9404090717332378,0.3199835547222548,-0.01634161733090878,0.2280267030000687,-0.9735177159309387,42380.17683241667,unknown,2,2020-03-09 10:59:34.793 +0100,605440778.3857423,0,44258.25,100.3989
2020-03-09 10:59:39.174 +0100,42384.55678716667,0.029815673828125,0.4918975830078125,-1.1419677734375,42384.55176316667,-2.513844410765238,-0.004498920258548243,-0.2662276645460234,-2.330981016159058,1.281869769096375,-1.559431076049805,0.02423777431249619,0.04194635152816772,-0.1531439423561096,XArbitraryZVertical,-0.0430975963253875,0.1255482549754697,-0.9426355790487653,0.306297549348483,-0.004340409766882658,0.263093888759613,-0.9647604823112488,42380.17683241667,unknown,2,2020-03-09 10:59:34.793 +0100,605440778.3857423,0,44258.25,100.3989
2020-03-09 10:59:39.189 +0100,42384.57186116667,0.08233642578125,0.608367919921875,-1.195266723632812,42384.56683716667,-2.536435230619717,0.008255188344385864,-0.2971305157562012,-1.723938345909119,1.227254509925842,-1.322911739349365,0.03579254448413849,0.2528328001499176,-0.2057932615280151,XArbitraryZVertical,-0.04021016810143461,0.1425102108505394,-0.9442301510618477,0.2941145990125548,0.007893361151218414,0.2927776575088501,-0.9561479687690735,42380.17683241667,unknown,2,2020-03-09 10:59:34.793 +0100,605440778.3857423,0,44258.25,100.3989
2020-03-09 10:59:39.204 +0100,42384.58693616667,0.1204681396484375,0.5196075439453125,-1.250991821289062,42384.58191116667,-2.555146800522733,0.02060024870190081,-0.3177631071430355,-0.9796240925788879,1.176968693733215,-1.081781625747681,0.06276895105838776,0.295927494764328,-0.2455312609672546,XArbitraryZVertical,-0.03599146303694796,0.1543925183109502,-0.9456805486458622,0.2838233416211219,0.01956754736602306,0.3124424517154694,-0.9497351050376892,42380.17683241667,unknown,2,2020-03-09 10:59:34.793 +0100,605440778.3857423,0,44258.25,100.3989
2020-03-09 10:59:39.219 +0100,42384.60201016667,0.147308349609375,0.3056640625,-1.256790161132812,42384.59698516667,-2.570629452917173,0.03342256802141694,-0.3290030815911015,-0.5609353184700012,1.182106614112854,-0.9228264093399048,0.09783165156841278,0.1273417770862579,-0.3108618855476379,XArbitraryZVertical,-0.03029404551285822,0.1617531512137793,-0.9472110327443279,0.2751531100389698,0.03162405639886856,0.3230997323989868,-0.9458363652229309,42380.17683241667,unknown,2,2020-03-09 10:59:34.793 +0100,605440778.3857423,0,44258.25,100.3989
2020-03-09 10:59:39.234 +0100,42384.61708416667,0.18988037109375,0.135589599609375,-1.202133178710938,42384.61205916667,-2.584482796852215,0.04709459653714912,-0.3397175876773108,-0.8936113119125366,1.258364796638489,-0.8874294757843018,0.1029219031333923,-0.02755469083786011,-0.3149864077568054,XArbitraryZVertical,-0.02415657001913601,0.1688631075240773,-0.9484488199944716,0.2671075230625304,0.04438667371869087,0.3332208395004272,-0.9418033957481384,42380.17683241667,unknown,2,2020-03-09 10:59:34.793 +0100,605440778.3857423,0,44258.25,100.3989
2020-03-09 10:59:39.249 +0100,42384.63215816667,0.2240142822265625,0.15692138671875,-1.122085571289062,42384.62713316667,-2.598155525964916,0.06321827822221356,-0.3592834277158028,-1.627882599830627,1.506276845932007,-0.9761545658111572,0.1415568590164185,-0.2358328998088837,-0.2360087633132935,XArbitraryZVertical,-0.0179762555923804,0.1803812170234051,-0.9488512856037949,0.2584967090333946,0.05914231389760971,0.3516035079956055,-0.9342789649963379,42380.17683241667,unknown,2,2020-03-09 10:59:34.793 +0100,605440778.3857423,0,44258.25,100.3989
2020-03-09 10:59:39.264 +0100,42384.64723216667,0.263946533203125,0.3542938232421875,-1.118881225585938,42384.64220816667,-2.612421004403783,0.0826755869605226,-0.3891263072782187,-2.097022294998169,1.755217790603638,-1.043071985244751,0.1476069986820221,-0.2224564254283905,-0.2000045776367188,XArbitraryZVertical,-0.01138119933931596,0.1970538025898459,-0.948270060478013,0.2486443229059083,0.07640771567821503,0.3793801963329315,-0.9220805168151855,42380.17683241667,unknown,2,2020-03-09 10:59:34.793 +0100,605440778.3857423,0,44258.25,100.3989
2020-03-09 10:59:39.279 +0100,42384.66230716667,0.328582763671875,0.582305908203125,-1.170913696289062,42384.65728216667,-2.625048454543452,0.1044685139464576,-0.419766438438375,-1.655240535736084,1.751448035240173,-0.8263200521469116,0.1886647790670395,0.02456912398338318,-0.226727306842804,XArbitraryZVertical,-0.003769974915937596,0.2142031730990249,-0.9471043787271662,0.2389476246301573,0.09522555768489838,0.4075471758842468,-0.9082055687904358,42380.17683241667,unknown,2,2020-03-09 10:59:34.793 +0100,605440778.3857423,0,44258.25,100.3989
2020-03-09 10:59:39.294 +0100,42384.67738116667,0.3754730224609375,0.7177886962890625,-1.175048828125,42384.67235616667,-2.63361540022037,0.1260069281280302,-0.4378369465283324,-0.5831848382949829,1.569659352302551,-0.4739788174629211,0.2147644013166428,0.1583271622657776,-0.2724226713180542,XArbitraryZVertical,0.0050270320609656,0.2252322075556115,-0.9463776213981824,0.2315479338256487,0.1138190478086472,0.4239814579486847,-0.8984903693199158,42380.17683241667,unknown,2,2020-03-09 10:59:34.793 +0100,605440778.3857423,0,44258.25,100.3989
2020-03-09 10:59:39.309 +0100,42384.69245516667,0.372406005859375,0.59344482421875,-1.180953979492188,42384.68743016667,-2.63920055756716,0.1458566221002485,-0.439768163174681,0.3625475764274597,1.389068007469177,-0.2472066730260849,0.2480064481496811,0.2777948081493378,-0.2809653282165527,XArbitraryZVertical,0.01480611596308986,0.2283846391832309,-0.9467318598428865,0.2265391401730548,0.1315109580755234,0.4257296919822693,-0.89524245262146,42380.17683241667,unknown,2,2020-03-09 10:59:34.793 +0100,605440778.3857423,0,44258.25,100.3989
2020-03-09 10:59:39.325 +0100,42384.70752916667,0.3677520751953125,0.371978759765625,-1.13458251953125,42384.70250416667,-2.643856423777287,0.1642226088452848,-0.4315835081953565,0.6726036667823792,1.321494698524475,-0.1502459347248077,0.2239123731851578,0.1751379370689392,-0.2848694324493408,XArbitraryZVertical,0.02508676723559962,0.2265583728269722,-0.9478494032823396,0.2227629209865269,0.1484945714473724,0.4183096289634705,-0.8960838913917542,42380.17683241667,unknown,2,2020-03-09 10:59:34.793 +0100,605440778.3857423,0,44258.25,100.3989
2020-03-09 10:59:39.340 +0100,42384.72260316667,0.381256103515625,0.24945068359375,-1.108444213867188,42384.71757916667,-2.647405582655717,0.1825162218215667,-0.4242756345003568,0.28300940990448,1.319146037101746,-0.1126770600676537,0.2051030993461609,-0.09264257550239563,-0.2303863167762756,XArbitraryZVertical,0.03509922412597049,0.2250956971625235,-0.9486400512656723,0.219503980143416,0.1654118597507477,0.411660760641098,-0.8961999416351318,42380.17683241667,unknown,2,2020-03-09 10:59:34.793 +0100,605440778.3857423,0,44258.25,100.3989
2020-03-09 10:59:39.355 +0100,42384.73767816667,0.4033355712890625,0.2620697021484375,-1.107040405273438,42384.73265316667,-2.649042244064962,0.202319396959878,-0.4253427104374413,-0.3842266201972961,1.406215071678162,-0.1178133934736252,0.1982197612524033,-0.1631796061992645,-0.2161256074905396,XArbitraryZVertical,0.04453884631194299,0.2277220532339022,-0.9483277434040048,0.2164099805355378,0.1830375045537949,0.4126329720020294,-0.8923178911209106,42380.17683241667,unknown,2,2020-03-09 10:59:34.793 +0100,605440778.3857423,0,44258.25,100.3989
2020-03-09 10:59:39.370 +0100,42384.75275216667,0.4300537109375,0.38800048828125,-1.083084106445312,42384.74772716667,-2.648856203398485,0.2242946433042045,-0.4347173604735822,-0.7517503499984741,1.487211346626282,-0.1120401918888092,0.2110049426555634,-0.1276026368141174,-0.2211215496063232,XArbitraryZVertical,0.05371604434470193,0.2344771097841667,-0.9469224474234237,0.2132436442787962,0.2017313688993454,0.4211540818214417,-0.8842701315879822,42380.17683241667,unknown,2,2020-03-09 10:59:34.793 +0100,605440778.3857423,0,44258.25,100.3989
2020-03-09 10:59:39.385 +0100,42384.76782616667,0.4438629150390625,0.52130126953125,-1.049545288085938,42384.76280116667,-2.647523524530646,0.2471465712427625,-0.4445546152390272,-0.4451153576374054,1.443370819091797,-0.0298769474029541,0.2091951668262482,-0.04205253720283508,-0.2077131867408752,XArbitraryZVertical,0.06308089825472267,0.2415279356745365,-0.9452190303155809,0.2103471451322868,0.2208599597215652,0.4300558269023895,-0.8753700852394104,42380.17683241667,unknown,2,2020-03-09 10:59:34.793 +0100,605440778.3857423,0,44258.25,100.3989
2020-03-09 10:59:39.400 +0100,42384.78290016667,0.4417266845703125,0.5350189208984375,-1.02081298828125,42384.77787516667,-2.647036123010318,0.267710198830841,-0.4454194409791782,0.3445980846881866,1.245497107505798,0.05364523828029633,0.2056384086608887,0.1091138422489166,-0.1655116081237793,XArbitraryZVertical,0.07262191715260531,0.2440977629115214,-0.9443919106700281,0.2080051881814401,0.2387143075466156,0.4308364391326904,-0.8702846765518188,42380.17683241667,unknown,2,2020-03-09 10:59:34.793 +0100,605440778.3857423,0,44258.25,100.3989
2020-03-09 10:59:39.415 +0100,42384.79797416667,0.4517364501953125,0.449371337890625,-0.97222900390625,42384.79295016667,-2.648652562726271,0.284616061833721,-0.4354621239843861,0.896546483039856,1.11602246761322,0.1205192506313324,0.187143862247467,0.1131921410560608,-0.1506129503250122,XArbitraryZVertical,0.08212375478596118,0.2411557233574439,-0.9447863380009341,0.2061025025878458,0.254584401845932,0.4218294322490692,-0.8701992034912109,42380.17683241667,unknown,2,2020-03-09 10:59:34.793 +0100,605440778.3857423,0,44258.25,100.3989
2020-03-09 10:59:39.430 +0100,42384.81304816667,0.50006103515625,0.3365020751953125,-0.982269287109375,42384.80802416667,-2.650484887422804,0.3002009720204867,-0.4216528676464159,0.8432829976081848,1.060028195381165,0.1955748498439789,0.1982226371765137,0.003865182399749756,-0.1004982590675354,XArbitraryZVertical,0.09154037271206886,0.2362549850806038,-0.9454672892113473,0.2046835126301582,0.2698118686676025,0.4092691242694855,-0.8716078996658325,42380.17683241667,unknown,2,2020-03-09 10:59:34.793 +0100,605440778.3857423,0,44258.25,100.3989
2020-03-09 10:59:39.445 +0100,42384.82812316667,0.46820068359375,0.274139404296875,-1.007614135742188,42384.82309816667,-2.65032741443441,0.3161009731684264,-0.4111977344034996,0.4518135786056519,1.050766825675964,0.2252767533063889,0.2151123881340027,-0.06320294737815857,-0.1110411286354065,XArbitraryZVertical,0.1004283403927396,0.2330245952960784,-0.9455330449049281,0.2039135622896391,0.2849503755569458,0.3997074961662292,-0.8712273836135864,42380.17683241667,unknown,2,2020-03-09 10:59:34.793 +0100,605440778.3857423,0,44258.25,100.3989
2020-03-09 10:59:39.473 +0100,42384.84319866667,0.3780364990234375,0.3471832275390625,-1.015716552734375,42384.83817366667,-2.648364486653235,0.333398964025322,-0.406290672570755,0.1321462392807007,1.151569247245789,0.2115276455879211,0.136870801448822,-0.1188350915908813,-0.1461024284362793,XArbitraryZVertical,0.1090303954854609,0.2326086594970725,-0.9448093931554554,0.2033240388466882,0.3006157577037811,0.3952046930789948,-0.8680111765861511,42380.17683241667,unknown,2,2020-03-09 10:59:34.793 +0100,605440778.3857423,0,44258.25,100.3989
2020-03-09 10:59:39.488 +0100,42384.85827266667,0.340179443359375,0.50927734375,-0.9911041259765625,42384.85324766667,-2.645636690478161,0.3525482020665691,-0.4036044324682582,0.1698937267065048,1.223871827125549,0.2280662804841995,0.06049168109893799,-0.04555004835128784,-0.1526266932487488,XArbitraryZVertical,0.1181152786113049,0.2334614858637119,-0.9436482025181744,0.2026635161925068,0.3175467848777771,0.3927357196807861,-0.8630890250205994,42380.17683241667,unknown,2,2020-03-09 10:59:34.793 +0100,605440778.3857423,0,44258.25,100.3989
2020-03-09 10:59:39.490 +0100,42384.87334666667,0.372222900390625,0.556854248046875,-0.922149658203125,42384.86832266667,-2.64404416725514,0.3715174414530151,-0.3965873565108429,0.6766155362129211,1.202262997627258,0.284231036901474,0.008822709321975708,0.1584530472755432,-0.1079033613204956,XArbitraryZVertical,0.1278293934617147,0.2322305754165596,-0.9428333197226239,0.2019747544972127,0.3348530530929565,0.3862728178501129,-0.8594571948051453,42380.17683241667,unknown,2,2020-03-09 10:59:34.793 +0100,605440778.3857423,0,44258.25,100.3989
2020-03-09 10:59:39.506 +0100,42384.88842066667,0.432769775390625,0.4514007568359375,-0.852874755859375,42384.88339666667,-2.645540206663183,0.3884071643972609,-0.381484300372916,1.220121383666992,1.094332695007324,0.2711687982082367,0.02073502540588379,0.184558093547821,-0.06316769123077393,XArbitraryZVertical,0.1380195314472928,0.2268480870388452,-0.9429069310189907,0.2010396244545307,0.3514900505542755,0.3722984790802002,-0.8589811325073242,42380.17683241667,unknown,2,2020-03-09 10:59:34.793 +0100,605440778.3857423,0,44258.25,100.3989
2020-03-09 10:59:39.520 +0100,42384.90349566667,0.4302215576171875,0.317901611328125,-0.7997589111328125,42384.89847066667,-2.65017930613697,0.4020290713229516,-0.3614434038188382,1.379240036010742,0.9446091651916504,0.2372180670499802,0.07592296600341797,0.05014029145240784,0.03091377019882202,XArbitraryZVertical,0.147672920801521,0.2186063542731282,-0.9436856801816237,0.1996528173198363,0.3660043776035309,0.3536247313022614,-0.8608079552650452,42380.17683241667,unknown,2,2020-03-09 10:59:34.793 +0100,605440778.3857423,0,44258.25,100.3989
2020-03-09 10:59:39.535 +0100,42384.91856966667,0.3668975830078125,0.2210845947265625,-0.7679595947265625,42384.91354466667,-2.654415614482823,0.4142670964582713,-0.342538893905725,1.07724916934967,0.8884035348892212,0.2804048657417297,0.05108913779258728,-0.01797586679458618,0.06247258186340332,XArbitraryZVertical,0.1564366961600287,0.2107420902376904,-0.9442924863479456,0.1985620300207073,0.3791347444057465,0.3358795642852783,-0.862230658531189,42380.17683241667,unknown,2,2020-03-09 10:59:34.793 +0100,605440778.3857423,0,44258.25,100.3989
2020-03-09 10:59:39.551 +0100,42384.93364366667,0.314697265625,0.23394775390625,-0.7501220703125,42384.92861866667,-2.65582205577135,0.4268487180532235,-0.3293666452133838,0.5919367671012878,0.8342651724815369,0.2519742846488953,-0.04712840914726257,-0.1145947873592377,0.09952050447463989,XArbitraryZVertical,0.1642755953388881,0.2057690626869214,-0.9441419483544394,0.1981628019152869,0.3917505145072937,0.3234437704086304,-0.8613452315330505,42380.17683241667,unknown,2,2020-03-09 10:59:34.793 +0100,605440778.3857423,0,44258.25,100.3989
2020-03-09 10:59:39.566 +0100,42384.94871766667,0.307342529296875,0.3660430908203125,-0.7763519287109375,42384.94369266667,-2.655221321335212,0.439259717601071,-0.3220905852923924,0.3100602328777313,0.78799968957901,0.2333218306303024,-0.08870071172714233,-0.08260068297386169,0.1084030270576477,XArbitraryZVertical,0.1710374948615943,0.2036762768405829,-0.9434156014256968,0.1980630770968732,0.4034003913402557,0.3165503442287445,-0.8585243225097656,42380.17683241667,unknown,2,2020-03-09 10:59:34.793 +0100,605440778.3857423,0,44258.25,100.3989
2020-03-09 10:59:39.581 +0100,42384.96379166667,0.314788818359375,0.4713134765625,-0.785430908203125,42384.95876766667,-2.654249015270734,0.4509848542142038,-0.3155435470572503,0.4907247722148895,0.7184045314788818,0.2432262450456619,-0.1029292345046997,0.1029377281665802,0.0687943696975708,XArbitraryZVertical,0.1773385295218163,0.2018906332117926,-0.9426180812651934,0.1981472801967749,0.414333164691925,0.3103332221508026,-0.8555824160575867,42380.17683241667,unknown,2,2020-03-09 10:59:34.793 +0100,605440778.3857423,0,44258.25,100.3989
2020-03-09 10:59:39.596 +0100,42384.97886666667,0.304290771484375,0.4126434326171875,-0.704376220703125,42384.97384166667,-2.655775207314432,0.4605292825925351,-0.304774115723662,0.8605363965034485,0.5992960333824158,0.2075193524360657,-0.1091494858264923,0.1712376475334167,0.0691034197807312,XArbitraryZVertical,0.1834197161048944,0.1977131709787433,-0.942405129657623,0.1978361598257529,0.4239409863948822,0.3000777065753937,-0.8545334339141846,42380.17683241667,unknown,2,2020-03-09 10:59:34.793 +0100,605440778.3857423,0,44258.25,100.3989
2020-03-09 10:59:39.611 +0100,42384.99394066667,0.29974365234375,0.2706451416015625,-0.6655120849609375,42384.98891566667,-2.659808066486943,0.4671955169623408,-0.2910655816276988,0.9418821334838867,0.445402592420578,0.1473231315612793,-0.1295882165431976,0.0777747631072998,0.1722832918167114,XArbitraryZVertical,0.1887612983484158,0.1916472214312626,-0.9427709848649839,0.1970364963731001,0.4314403533935547,0.2869731485843658,-0.8552810549736023,42380.17683241667,unknown,2,2020-03-09 10:59:34.793 +0100,605440778.3857423,0,44258.25,100.3989
2020-03-09 10:59:39.626 +0100,42385.00901466667,0.30230712890625,0.1901092529296875,-0.679168701171875,42385.00398966667,-2.664127392043658,0.4719989568605182,-0.2785744412589006,0.7601548433303833,0.3639238178730011,0.1307511180639267,-0.1373930275440216,-0.004338443279266357,0.1908135414123535,XArbitraryZVertical,0.1930623211617207,0.1859154285917155,-0.9432327495593793,0.1961483579405857,0.4371394217014313,0.2749853134155273,-0.8563247919082642,42380.17683241667,unknown,2,2020-03-09 10:59:34.793 +0100,605440778.3857423,0,44258.25,100.3989
2020-03-09 10:59:39.641 +0100,42385.02408866667,0.30865478515625,0.216217041015625,-0.6609039306640625,42385.01906366667,-2.666004081842571,0.4767671966878702,-0.2692987903540758,0.440286785364151,0.3397278785705566,0.2374266982078552,-0.1417223513126373,-0.07808086276054382,0.1710972785949707,XArbitraryZVertical,0.1966823143861609,0.181895579906704,-0.9432955194345882,0.1960191631428026,0.442369133234024,0.266055554151535,-0.8564601540565491,42380.17683241667,unknown,2,2020-03-09 10:59:34.793 +0100,605440778.3857423,0,44258.25,100.3989
2020-03-09 10:59:39.656 +0100,42385.03916266667,0.3396759033203125,0.294921875,-0.6527099609375,42385.03413866667,-2.66406798409153,0.4815557458939271,-0.2637017045641485,0.1400472074747086,0.2065980583429337,0.3002547025680542,-0.1384902894496918,-0.04443734884262085,0.1947354078292847,XArbitraryZVertical,0.199486828534716,0.1799605437688631,-0.942826564950689,0.1972237731567136,0.4471479654312134,0.2606560587882996,-0.8556384444236755,42380.17683241667,unknown,2,2020-03-09 10:59:34.793 +0100,605440778.3857423,0,44258.25,100.3989
2020-03-09 10:59:39.671 +0100,42385.05423766667,0.32275390625,0.3676300048828125,-0.70391845703125,42385.04921266667,-2.660957366051123,0.4848584518455237,-0.2597183426294267,0.1859222948551178,0.1393588334321976,0.2834621369838715,-0.1080568432807922,0.05647149682044983,0.2062355279922485,XArbitraryZVertical,0.2012796880894724,0.1787514763193659,-0.9423206507753259,0.1989124310215648,0.4504517912864685,0.256808340549469,-0.8550688028335571,42380.17683241667,unknown,2,2020-03-09 10:59:34.793 +0100,605440778.3857423,0,44258.25,100.3989
2020-03-09 10:59:39.686 +0100,42385.06931166667,0.2509918212890625,0.406707763671875,-0.7776031494140625,42385.06428666667,-2.66008889783335,0.4874955640217978,-0.2535074416230299,0.5313031077384949,0.1852077692747116,0.2033319771289825,-0.1306866407394409,0.1168308258056641,0.151353120803833,XArbitraryZVertical,0.2032500532923579,0.1762217124163932,-0.9421652943606489,0.199899403571019,0.4534435272216797,0.2508008480072021,-0.8552706241607666,42380.17683241667,unknown,2,2020-03-09 10:59:34.793 +0100,605440778.3857423,0,44258.25,100.3989
2020-03-09 10:59:39.701 +0100,42385.08438566667,0.219757080078125,0.326446533203125,-0.8276519775390625,42385.07936066667,-2.663083967746443,0.4897663224534477,-0.2421869677096987,0.959581732749939,0.221205934882164,0.1756796836853027,-0.225791871547699,0.1523565948009491,0.04696744680404663,XArbitraryZVertical,0.2060397829712511,0.1708885555703384,-0.9425686758343413,0.1997722401381634,0.4566908776760101,0.2398263365030289,-0.8566893935203552,42380.17683241667,unknown,2,2020-03-09 10:59:34.793 +0100,605440778.3857423,0,44258.25,100.3989
2020-03-09 10:59:39.716 +0100,42385.09945966667,0.27294921875,0.1461181640625,-0.7540740966796875,42385.09443466667,-2.667561228072087,0.4922837133865586,-0.2277831178831403,0.8994076251983643,0.2403140664100647,0.2185183167457581,-0.2406709790229797,0.1006295382976532,0.03084135055541992,XArbitraryZVertical,0.20943734025126,0.1639810856744348,-0.943139630247302,0.1993332694200439,0.4604310691356659,0.2258184552192688,-0.8584924340248108,42380.17683241667,unknown,2,2020-03-09 10:59:34.793 +0100,605440778.3857423,0,44258.25,100.3989
2020-03-09 10:59:39.731 +0100,42385.11453366667,0.288726806640625,0.0261077880859375,-0.6707611083984375,42385.10950966667,-2.668657705195397,0.4956793236608452,-0.2177744157768053,0.2743916511535645,0.2562834620475769,0.2926511466503143,-0.1764283776283264,-0.1307133287191391,0.1311479210853577,XArbitraryZVertical,0.212390524779027,0.1595483237155806,-0.943130137322732,0.1998500699645124,0.46439528465271,0.2160571366548538,-0.858869194984436,42380.17683241667,unknown,2,2020-03-09 10:59:34.793 +0100,605440778.3857423,0,44258.25,100.3989
2020-03-09 10:59:39.747 +0100,42385.12960766667,0.259490966796875,0.0906829833984375,-0.6108856201171875,42385.12458366667,-2.663416810647546,0.5010426526915878,-0.2173319018622343,-0.5336194634437561,0.2965064346790314,0.3144721984863281,-0.1803109645843506,-0.1895158290863037,0.1856897473335266,XArbitraryZVertical,0.2145549285732363,0.1604407008105464,-0.9420410986150235,0.2019492384582681,0.4690408706665039,0.215625062584877,-0.8564499020576477,42380.17683241667,unknown,2,2020-03-09 10:59:34.793 +0100,605440778.3857423,0,44258.25,100.3989
2020-03-09 10:59:39.762 +0100,42385.14468266667,0.29998779296875,0.24615478515625,-0.6922760009765625,42385.13965766667,-2.653576088547226,0.5075418508622308,-0.2246294428150641,-0.7965027093887329,0.2729513347148895,0.3428128361701965,-0.2070776224136353,-0.08558237552642822,0.2270475625991821,XArbitraryZVertical,0.2158736789639682,0.1655468809052603,-0.9401784198002265,0.2050784522400304,0.4738197326660156,0.2227451354265213,-0.8519855737686157,42380.17683241667,unknown,2,2020-03-09 10:59:34.793 +0100,605440778.3857423,0,44258.25,100.3989
2020-03-09 10:59:39.777 +0100,42385.15975666667,0.3363800048828125,0.3930511474609375,-0.7895050048828125,42385.15473166667,-2.644860898123363,0.5127766946651929,-0.2292223118973421,-0.1738682240247726,0.136846661567688,0.3178593218326569,-0.1777752637863159,0.01893603801727295,0.1563180685043335,XArbitraryZVertical,0.2170015441618774,0.169156076623651,-0.9386078925062145,0.2081142132366839,0.4777663052082062,0.2272202521562576,-0.8485931158065796,42380.17683241667,unknown,2,2020-03-09 10:59:34.793 +0100,605440778.3857423,0,44258.25,100.3989
2020-03-09 10:59:39.792 +0100,42385.17483066667,0.3229827880859375,0.3184051513671875,-0.8531646728515625,42385.16980566667,-2.643167296670812,0.5142577314937932,-0.2232680796729077,0.6959611773490906,0.02082499675452709,0.2694547772407532,-0.1435098350048065,0.1730692237615585,0.03612124919891357,XArbitraryZVertical,0.2183414981944554,0.1667430465511055,-0.9383999651380717,0.209592716593171,0.4796795547008514,0.2214177697896957,-0.8490474820137024,42380.17683241667,unknown,2,2020-03-09 10:59:34.793 +0100,605440778.3857423,0,44258.25,100.3989
2020-03-09 10:59:39.807 +0100,42385.18990466667,0.3092041015625,0.1402587890625,-0.900909423828125,42385.18488066667,-2.645738143436736,0.51379585561163,-0.2105492869041436,0.8054962158203125,0.01225679181516171,0.2913074791431427,-0.1576465368270874,0.1094095259904861,-0.001510858535766602,XArbitraryZVertical,0.2200089018602991,0.1605294502588115,-0.9389702832666852,0.2101453123894529,0.4806326627731323,0.2089970856904984,-0.8516527414321899,42380.17683241667,unknown,2,2020-03-09 10:59:34.793 +0100,605440778.3857423,0,44258.25,100.3989
2020-03-09 10:59:39.822 +0100,42385.20497866667,0.31756591796875,0.074615478515625,-0.9249725341796875,42385.19995466667,-2.645790782154184,0.5146066126095311,-0.2000931989126918,0.376385360956192,0.1079858168959618,0.3802415430545807,-0.1716998517513275,-0.0968000590801239,-0.06066834926605225,XArbitraryZVertical,0.2217599572731103,0.1557667154998208,-0.9390641343246695,0.2114655904894522,0.4823722541332245,0.1987606734037399,-0.8531184792518616,42380.17683241667,unknown,2,2020-03-09 10:59:34.793 +0100,605440778.3857423,0,44258.25,100.3989
2020-03-09 10:59:39.837 +0100,42385.22005366667,0.3480987548828125,0.1263427734375,-0.84716796875,42385.21502866667,-2.641637108579252,0.5178232297524586,-0.1953215916715345,-0.08603311330080032,0.1908567845821381,0.3898035287857056,-0.1680085062980652,-0.1194652169942856,-0.07259464263916016,XArbitraryZVertical,0.2235714563826275,0.1543611996615791,-0.9383357061985823,0.2138091114983227,0.4855778217315674,0.1940820217132568,-0.8523768186569214,42380.17683241667,unknown,2,2020-03-09 10:59:34.793 +0100,605440778.3857423,0,44258.25,100.3989
2020-03-09 10:59:39.852 +0100,42385.23512766667,0.3881683349609375,0.1656646728515625,-0.71588134765625,42385.23010266667,-2.634130637042816,0.5219489656389361,-0.1963702616827543,-0.4895185232162476,0.1448402851819992,0.3969919383525848,-0.12909135222435,-0.0541180819272995,0.03382992744445801,XArbitraryZVertical,0.2247846815883179,0.1561319088712877,-0.9370505232754516,0.2168660436826295,0.4889886379241943,0.1951106488704681,-0.8501893281936646,42380.17683241667,unknown,2,2020-03-09 10:59:34.793 +0100,605440778.3857423,0,44258.25,100.3989
2020-03-09 10:59:39.867 +0100,42385.25020166667,0.4394683837890625,0.1894378662109375,-0.7745361328125,42385.24517666667,-2.624212176472603,0.5256119115365989,-0.2011447766681039,-0.5691199898719788,0.09354991465806961,0.4190327227115631,-0.1034547388553619,-0.03412511944770813,0.1316967010498047,XArbitraryZVertical,0.2250751444466389,0.1598520170256067,-0.9354884292531477,0.2205669292415269,0.4916265308856964,0.1997911632061005,-0.8475770354270935,42380.17683241667,unknown,2,2020-03-09 10:59:34.793 +0100,605440778.3857423,0,44258.25,100.3989
2020-03-09 10:59:39.882 +0100,42385.26527566667,0.401458740234375,0.22674560546875,-0.899688720703125,42385.26025066667,-2.615699396275339,0.5284838786318627,-0.2033783993616495,-0.253704160451889,0.07948675751686096,0.3901046514511108,-0.05657321214675903,0.0001552999019622803,0.01147031784057617,XArbitraryZVertical,0.2254272481183785,0.1621588729856938,-0.9341882947568274,0.2240070707449106,0.4938324689865112,0.2019792497158051,-0.8457741141319275,42380.17683241667,unknown,2,2020-03-09 10:59:34.793 +0100,605440778.3857423,0,44258.25,100.3989
2020-03-09 10:59:39.897 +0100,42385.28034966667,0.34271240234375,0.2193756103515625,-0.917388916015625,42385.27532566667,-2.609511959815681,0.5315477186612325,-0.2010306656381602,0.1148717179894447,0.1541718989610672,0.4692354202270508,-0.09519833326339722,0.02706760168075562,-0.05502414703369141,XArbitraryZVertical,0.2266805649627952,0.1621238577078985,-0.9331747743224823,0.2269723534390383,0.496660441160202,0.1996793448925018,-0.8446635603904724,42380.17683241667,unknown,2,2020-03-09 10:59:34.793 +0100,605440778.3857423,0,44258.25,100.3989
2020-03-09 10:59:39.912 +0100,42385.29542466667,0.3972930908203125,0.217010498046875,-0.835205078125,42385.29039966667,-2.604733799638324,0.5351535083653438,-0.1939688913453143,0.3309829831123352,0.1589621305465698,0.5172575712203979,-0.15482497215271,0.02543188631534576,-0.04056811332702637,XArbitraryZVertical,0.2289611132619186,0.1598350273419283,-0.9322977152877446,0.2298923051468955,0.5004095435142517,0.192754864692688,-0.84405916929245,42380.17683241667,unknown,2,2020-03-09 10:59:34.793 +0100,605440778.3857423,0,44258.25,100.3989
2020-03-09 10:59:39.927 +0100,42385.31049866667,0.5394439697265625,0.2421875,-0.8569488525390625,42385.30547366667,-2.601729838093672,0.5370311673101639,-0.1857591422874036,0.3935297429561615,0.03518320620059967,0.3859831392765045,-0.1054894924163818,0.03231912851333618,0.009245336055755615,XArbitraryZVertical,0.2307457703577443,0.1566260556521499,-0.9318086961384845,0.2322867550394516,0.5027861595153809,0.1846926659345627,-0.8444493412971497,42380.17683241667,unknown,2,2020-03-09 10:59:34.793 +0100,605440778.3857423,0,44258.25,100.3989
2020-03-09 10:59:39.943 +0100,42385.32557266667,0.5961761474609375,0.1929779052734375,-0.941070556640625,42385.32054766667,-2.599755608387491,0.5374031875280459,-0.1786773570046107,0.2200255692005157,0.001158925704658031,0.3146277368068695,0.07196044921875,0.05561049282550812,-0.03744679689407349,XArbitraryZVertical,0.2317565394357995,0.1536443455666174,-0.9315848063039271,0.2341623947965465,0.5037571787834167,0.177728146314621,-0.8453646302223206,42380.17683241667,unknown,2,2020-03-09 10:59:34.793 +0100,605440778.3857423,0,44258.25,100.3989
2020-03-09 10:59:39.973 +0100,42385.34064666667,0.499114990234375,0.1887359619140625,-0.9957275390625,42385.33562166667,-2.596582470732989,0.5389318073337014,-0.1767072515047385,-0.2473946660757065,0.1664069145917892,0.1893777847290039,0.09095209836959839,0.01719006896018982,-0.09617698192596436,XArbitraryZVertical,0.2325010996138729,0.153287307715002,-0.9310457517902764,0.2357965931770489,0.5052275657653809,0.1757890582084656,-0.8448925018310547,42380.17683241667,unknown,2,2020-03-09 10:59:34.793 +0100,605440778.3857423,0,44258.25,100.3989
2020-03-09 10:59:39.988 +0100,42385.35572066667,0.402679443359375,0.2235870361328125,-1.036376953125,42385.35069666667,-2.589811026838461,0.5442287695022704,-0.1829849855807951,-0.8841932415962219,0.4246299266815186,0.1660484671592712,-0.05330020189285278,0.01936021447181702,-0.1626613736152649,XArbitraryZVertical,0.2335505549311863,0.1575825636125979,-0.9295920312170132,0.2376561685026595,0.5091143846511841,0.1819655299186707,-0.8412437438964844,42380.17683241667,unknown,2,2020-03-09 10:59:34.793 +0100,605440778.3857423,0,44258.25,100.3989
2020-03-09 10:59:39.990 +0100,42385.37079466667,0.4279632568359375,0.3228759765625,-1.036773681640625,42385.36577066667,-2.579611416896561,0.5543941055871353,-0.1945609034460626,-1.00062084197998,0.6836220622062683,0.1714409440755844,-0.1138129234313965,0.03025263547897339,-0.2021976709365845,XArbitraryZVertical,0.2357791309872727,0.1652849917127515,-0.9271061397146646,0.2399230990456124,0.516495943069458,0.1933357417583466,-0.8341781497001648,42380.17683241667,unknown,2,2020-03-09 10:59:34.793 +0100,605440778.3857423,0,44258.25,100.3989
2020-03-09 10:59:40.003 +0100,42385.38586966667,0.48590087890625,0.5032501220703125,-0.8755035400390625,42385.38084466667,-2.571165614913672,0.5666180197853991,-0.2030534365097437,-0.5130661129951477,0.710564911365509,0.1800006181001663,-0.07587516307830811,0.1807104051113129,-0.176388680934906,XArbitraryZVertical,0.2394803257068666,0.1716262166859874,-0.9245746982245491,0.2415679525783488,0.5257536768913269,0.2016609758138657,-0.8263872265815735,42380.17683241667,unknown,2,2020-03-09 10:59:34.793 +0100,605440778.3857423,0,44258.25,100.3989
2020-03-09 10:59:40.018 +0100,42385.40094366667,0.489227294921875,0.4734039306640625,-0.8654632568359375,42385.39591866667,-2.564431541819518,0.576846674947464,-0.2072964790933176,-0.5147542357444763,0.4685041606426239,0.267973393201828,-0.04780280590057373,0.2974365055561066,-0.05526053905487061,XArbitraryZVertical,0.2429873158037727,0.1756026394019175,-0.9224933627961556,0.2431598621963834,0.5337073802947998,0.2058150172233582,-0.8202417492866516,42380.17683241667,unknown,2,2020-03-09 10:59:34.793 +0100,605440778.3857423,0,44258.25,100.3989
2020-03-09 10:59:40.033 +0100,42385.41601766667,0.5280914306640625,0.1609039306640625,-0.8400115966796875,42385.41099266667,-2.556538945088509,0.5852835183119652,-0.210947573790202,-0.3976539671421051,0.4546267092227936,0.264117956161499,-0.05674183368682861,0.1650197803974152,-0.05651801824569702,XArbitraryZVertical,0.2456237340842883,0.179248383363618,-0.9204726631243897,0.2454972673140845,0.5401898622512817,0.2093865573406219,-0.8150780200958252,42380.17683241667,unknown,2,2020-03-09 10:59:34.793 +0100,605440778.3857423,0,44258.25,100.3989
2020-03-09 10:59:40.048 +0100,42385.43109166667,0.609893798828125,0.0077972412109375,-0.8066253662109375,42385.42606766667,-2.55125210714995,0.5928120918105738,-0.2170413075878933,-0.8390035033226013,0.4003952741622925,-0.1437267512083054,-0.01749265193939209,-0.05443587899208069,-0.03009551763534546,XArbitraryZVertical,0.247675993290092,0.1835734294547541,-0.9188508567835245,0.2463135657873148,0.5455878376960754,0.2153412848711014,-0.809914767742157,42380.17683241667,unknown,2,2020-03-09 10:59:34.793 +0100,605440778.3857423,0,44258.25,100.3989
2020-03-09 10:59:40.063 +0100,42385.44616566667,0.52508544921875,0.0808868408203125,-0.838470458984375,42385.44114166667,-2.541908149085583,0.6013230629499655,-0.2365704552081251,-1.950492143630981,0.4906763434410095,-0.2726238071918488,0.05046027898788452,-0.2317744195461273,0.007524371147155762,XArbitraryZVertical,0.2476689129303979,0.1945498216122779,-0.9164717795311111,0.2467585718197306,0.5499768257141113,0.2343699932098389,-0.8016209602355957,42380.17683241667,unknown,2,2020-03-09 10:59:34.793 +0100,605440778.3857423,0,44258.25,100.3989
2020-03-09 10:59:40.078 +0100,42385.46124066667,0.464691162109375,0.408050537109375,-0.95391845703125,42385.45621566667,-2.527014747104263,0.6143547793148377,-0.2648584857937312,-1.987311840057373,0.7253823280334473,-0.324239581823349,-0.031241774559021,-0.180884063243866,-0.04981774091720581,XArbitraryZVertical,0.247611895020811,0.2106245463692921,-0.9126619697567675,0.2477371604028294,0.5563309788703918,0.2617726922035217,-0.7886512875556946,42380.17683241667,unknown,2,2020-03-09 10:59:34.793 +0100,605440778.3857423,0,44258.25,100.3989
2020-03-09 10:59:40.093 +0100,42385.47631466667,0.5719146728515625,0.6684417724609375,-0.894195556640625,42385.47128966667,-2.519389453459059,0.6266721032127834,-0.2847415602216726,-0.6029439568519592,0.5426993370056152,-0.3871937692165375,-0.07415664196014404,0.2344428896903992,-0.1688727140426636,XArbitraryZVertical,0.2491499975847108,0.2219003312828744,-0.9098694705611671,0.246621007246343,0.5628384947776794,0.2809094190597534,-0.7773690223693848,42380.17683241667,unknown,2,2020-03-09 10:59:34.793 +0100,605440778.3857423,0,44258.25,100.3989
2020-03-09 10:59:40.108 +0100,42385.49138866667,0.6254119873046875,0.7050018310546875,-0.7952728271484375,42385.48636366667,-2.525050673664971,0.6298593667795328,-0.2848299914936527,0.9293451905250549,0.09678053855895996,-0.1649151891469955,0.006619930267333984,0.3874494433403015,-0.1186429262161255,XArbitraryZVertical,0.2512134217127399,0.2216218972939762,-0.9101631252807549,0.2436769897085514,0.5652986764907837,0.2809942960739136,-0.7755510807037354,42380.17683241667,unknown,2,2020-03-09 10:59:34.793 +0100,605440778.3857423,0,44258.25,100.3989
2020-03-09 10:59:40.123 +0100,42385.50646266667,0.5931854248046875,0.4710845947265625,-0.709808349609375,42385.50143766667,-2.538989825939775,0.6247936805235766,-0.2687920925128163,1.72333836555481,-0.2592872083187103,-0.08295691013336182,0.05494338274002075,0.3876634836196899,0.02204298973083496,XArbitraryZVertical,0.2530091339685399,0.2121473970079817,-0.9127575979052767,0.2405272860634136,0.5639265179634094,0.2655670940876007,-0.7819597125053406,42380.17683241667,unknown,2,2020-03-09 10:59:34.793 +0100,605440778.3857423,0,44258.25,100.3989
2020-03-09 10:59:40.139 +0100,42385.52153666667,0.54901123046875,0.2749176025390625,-0.7900543212890625,42385.51651266667,-2.556303441246749,0.6149321509954109,-0.2495913347177808,1.493556618690491,-0.4069215357303619,-0.2487719058990479,0.03416240215301514,0.2240782678127289,0.08169543743133545,XArbitraryZVertical,0.2532994472299633,0.2002203930238041,-0.9163520279474244,0.2367489347905169,0.559026837348938,0.2470079809427261,-0.7915023565292358,42380.17683241667,unknown,2,2020-03-09 10:59:34.793 +0100,605440778.3857423,0,44258.25,100.3989
2020-03-09 10:59:40.153 +0100,42385.53661166667,0.4473876953125,0.3022613525390625,-0.831787109375,42385.53158666667,-2.569750089135369,0.6076028949064813,-0.2375392421536783,0.8545364141464233,-0.1116203814744949,-0.2114908397197723,-0.03823435306549072,0.02485223114490509,-0.02527624368667603,XArbitraryZVertical,0.2530941740351874,0.1922525181334069,-0.9190155108814736,0.2332222999173786,0.554870069026947,0.2353116869926453,-0.7979646325111389,42380.17683241667,unknown,2,2020-03-09 10:59:34.793 +0100,605440778.3857423,0,44258.25,100.3989
2020-03-09 10:59:40.169 +0100,42385.55168566667,0.41070556640625,0.38568115234375,-0.807525634765625,42385.54666066667,-2.576958358777188,0.6053664216413541,-0.2302291689989357,0.5385379195213318,-0.01096900645643473,0.009439431130886078,-0.1066566705703735,0.07406222820281982,-0.03118908405303955,XArbitraryZVertical,0.2538440517700087,0.1877894113898824,-0.9202228247960644,0.2312749751540226,0.5540481805801392,0.2282006442546844,-0.8005966544151306,42380.17683241667,unknown,2,2020-03-09 10:59:34.793 +0100,605440778.3857423,0,44258.25,100.3989
2020-03-09 10:59:40.184 +0100,42385.56675966667,0.4342498779296875,0.326019287109375,-0.7311248779296875,42385.56173466667,-2.580364120942632,0.6044151161043422,-0.2225016299609881,0.5670022964477539,-0.0310852974653244,0.1680443584918976,-0.1450732946395874,0.1542091071605682,0.0269627571105957,XArbitraryZVertical,0.2548653694635372,0.1837618504752729,-0.9208199764982061,0.2310099915572061,0.5542718768119812,0.2206702679395676,-0.8025504350662231,42380.17683241667,unknown,2,2020-03-09 10:59:34.793 +0100,605440778.3857423,0,44258.25,100.3989
2020-03-09 10:59:40.199 +0100,42385.58183366667,0.4840545654296875,0.167205810546875,-0.6597137451171875,42385.57680866667,-2.583004826119708,0.6025881153907795,-0.2151765596895651,0.4109675586223602,-0.1330321431159973,0.07329428195953369,-0.1194523572921753,0.1125008016824722,0.07374835014343262,XArbitraryZVertical,0.2553387305992559,0.1799059908174681,-0.9214261766668861,0.2311052824936648,0.5537060499191284,0.2135199159383774,-0.8048719167709351,42380.17683241667,unknown,2,2020-03-09 10:59:34.793 +0100,605440778.3857423,0,44258.25,100.3989
2020-03-09 10:59:40.214 +0100,42385.59690766667,0.49102783203125,0.063385009765625,-0.6179351806640625,42385.59188366667,-2.585608792788627,0.5995034206448465,-0.2118985122114655,0.08702890574932098,-0.1821477562189102,-0.09745775908231735,-0.05862796306610107,-0.09540100395679474,0.1563940644264221,XArbitraryZVertical,0.2546277028823634,0.1777354919658911,-0.9221477915760199,0.2306906412532411,0.5516125559806824,0.2103163301944733,-0.8071496486663818,42380.17683241667,unknown,2,2020-03-09 10:59:34.793 +0100,605440778.3857423,0,44258.25,100.3989
2020-03-09 10:59:40.229 +0100,42385.61198266667,0.45794677734375,0.1626434326171875,-0.6053466796875,42385.60695766667,-2.586440855649373,0.5967267989592651,-0.2145085533743502,-0.2853622734546661,-0.192212238907814,-0.1644026637077332,-0.05802750587463379,-0.1494808793067932,0.1902874112129211,XArbitraryZVertical,0.2530419065942505,0.1784912579407623,-0.9225732526420735,0.2301501193553501,0.5490589737892151,0.2128672748804092,-0.8082213401794434,42380.17683241667,unknown,2,2020-03-09 10:59:34.793 +0100,605440778.3857423,0,44258.25,100.3989
2020-03-09 10:59:40.244 +0100,42385.62705666667,0.4295196533203125,0.358428955078125,-0.6849212646484375,42385.62203166667,-2.585361645387033,0.5939212297831836,-0.2193346937650539,-0.2299261391162872,-0.1987893432378769,-0.06816971302032471,-0.09985435009002686,0.01963421702384949,0.1727448105812073,XArbitraryZVertical,0.2509480357503096,0.1804888126483383,-0.9227553919269602,0.2301547122869711,0.5462080240249634,0.2175803035497665,-0.8088977336883545,42380.17683241667,unknown,2,2020-03-09 10:59:34.793 +0100,605440778.3857423,0,44258.25,100.3989
2020-03-09 10:59:40.259 +0100,42385.64213066667,0.4002685546875,0.382476806640625,-0.6759033203125,42385.63710566667,-2.58588463439306,0.5906371700418174,-0.2190425248382042,0.3204458355903625,-0.2334135174751282,0.0312095433473587,-0.1140607595443726,0.1411352753639221,0.1258199214935303,XArbitraryZVertical,0.2495221562278303,0.1799130979901099,-0.9232295998834045,0.2302542408578072,0.5435839891433716,0.2172951251268387,-0.8107399344444275,42380.17683241667,unknown,2,2020-03-09 10:59:34.793 +0100,605440778.3857423,0,44258.25,100.3989
2020-03-09 10:59:40.274 +0100,42385.65720466667,0.3886871337890625,0.3264007568359375,-0.5960235595703125,42385.65217966667,-2.589108272088105,0.5861354395514474,-0.2124338455590666,0.5458880066871643,-0.2627556920051575,0.102634459733963,-0.1486942768096924,0.1573257446289062,0.1700409054756165,XArbitraryZVertical,0.2486889633796358,0.1759975116143146,-0.9242282793686523,0.2301752696044665,0.5407112836837769,0.2108396589756012,-0.8143573403358459,42380.17683241667,unknown,2,2020-03-09 10:59:34.793 +0100,605440778.3857423,0,44258.25,100.3989
2020-03-09 10:59:40.289 +0100,42385.67227866667,0.3972015380859375,0.271575927734375,-0.4877777099609375,42385.66725466667,-2.590850886496035,0.5817792050679333,-0.2066089407991945,0.1453551203012466,-0.2652803063392639,0.1513195335865021,-0.1491338014602661,0.1212599277496338,0.2216948866844177,XArbitraryZVertical,0.2476666495882733,0.1726342410082761,-0.9250231845005539,0.2306309792429357,0.5378243923187256,0.2051421403884888,-0.8177173137664795,42380.17683241667,unknown,2,2020-03-09 10:59:34.793 +0100,605440778.3857423,0,44258.25,100.3989
2020-03-09 10:59:40.304 +0100,42385.68735266667,0.4688262939453125,0.312591552734375,-0.41571044921875,42385.68232866667,-2.58777692606494,0.5780349348012099,-0.2060369937680134,-0.2606003284454346,-0.3428237438201904,0.1914279758930206,-0.125380277633667,0.06386686861515045,0.3523258566856384,XArbitraryZVertical,0.2457520868742606,0.1723199844971043,-0.9251341910627406,0.2324616852045705,0.5348228812217712,0.2045823335647583,-0.8198234438896179,42380.17683241667,unknown,2,2020-03-09 10:59:34.793 +0100,605440778.3857423,0,44258.25,100.3989
2020-03-09 10:59:40.319 +0100,42385.70242766667,0.575286865234375,0.4256744384765625,-0.3723602294921875,42385.69740266667,-2.582362223055214,0.5724351452243988,-0.2099967016600721,-0.5467447638511658,-0.5394684672355652,0.1460318565368652,-0.06095093488693237,0.1041362285614014,0.4064087867736816,XArbitraryZVertical,0.2421180715077893,0.1741257972591064,-0.9251484679321391,0.234860112771965,0.5297807455062866,0.2084566801786423,-0.8221181035041809,42380.17683241667,unknown,2,2020-03-09 10:59:34.793 +0100,605440778.3857423,0,44258.25,100.3989
2020-03-09 10:59:40.335 +0100,42385.71750166667,0.597930908203125,0.47119140625,-0.5339508056640625,42385.71247666667,-2.575391344810125,0.5644496656409924,-0.2151361721352894,-0.4631840884685516,-0.7149990200996399,0.2475752681493759,0.07371336221694946,0.2420721054077148,0.4323868155479431,XArbitraryZVertical,0.2370587710304661,0.1763518770344744,-0.9252285577000693,0.2380235118447637,0.5226188898086548,0.2134804576635361,-0.8254063129425049,42380.17683241667,unknown,2,2020-03-09 10:59:34.793 +0100,605440778.3857423,0,44258.25,100.3989
2020-03-09 10:59:40.350 +0100,42385.73257566667,0.57568359375,0.265045166015625,-0.854278564453125,42385.72755066667,-2.569792921266655,0.5547683009656065,-0.2162575101302476,-0.02264653518795967,-0.6945778727531433,0.2584592700004578,0.08345729112625122,0.2566169798374176,0.2962734699249268,XArbitraryZVertical,0.2319189021618777,0.1763576474006072,-0.9256803035725707,0.2413037124609674,0.514477014541626,0.2145758122205734,-0.8302232027053833,42380.17683241667,unknown,2,2020-03-09 10:59:34.793 +0100,605440778.3857423,0,44258.25,100.3989
2020-03-09 10:59:40.365 +0100,42385.74764966667,0.5672454833984375,-0.074798583984375,-1.027297973632812,42385.74262566667,-2.567280807988757,0.5469088445424983,-0.2156428341868995,-0.2479603439569473,-0.3413809537887573,0.03709519654512405,0.06658363342285156,-0.04513555765151978,-0.09026700258255005,XArbitraryZVertical,0.2281508566668213,0.1754150087609025,-0.9262870281916191,0.2432466788644431,0.5080046057701111,0.2139754146337509,-0.834353506565094,42380.17683241667,unknown,2,2020-03-09 10:59:34.793 +0100,605440778.3857423,0,44258.25,100.3989
2020-03-09 10:59:40.380 +0100,42385.76272366667,0.54644775390625,-0.365447998046875,-1.025436401367188,42385.75769966667,-2.562986633317,0.548930685626841,-0.2273525951603536,-1.396824598312378,0.4977755546569824,-0.3907209634780884,0.05890053510665894,-0.3001962006092072,-0.1961667537689209,XArbitraryZVertical,0.2269434159716408,0.1814706817513003,-0.9253848622609344,0.2433677238428437,0.5083482265472412,0.2253990322351456,-0.8311301469802856,42380.17683241667,unknown,2,2020-03-09 10:59:34.793 +0100,605440778.3857423,0,44258.25,100.3989
2020-03-09 10:59:40.395 +0100,42385.77779866667,0.623138427734375,-0.0001220703125,-0.792755126953125,42385.77277366667,-2.553039772746696,0.5620987164451491,-0.2534791618554319,-2.086057424545288,0.8052428364753723,-0.3072987794876099,0.04412925243377686,-0.5892423391342163,-0.1147817373275757,XArbitraryZVertical,0.2280880168806007,0.1960242015817254,-0.9222577395837355,0.2428803963246177,0.5159327387809753,0.2507734596729279,-0.8191007375717163,42380.17683241667,unknown,2,2020-03-09 10:59:34.793 +0100,605440778.3857423,0,44258.25,100.3989
2020-03-09 10:59:40.410 +0100,42385.79287266667,0.6807861328125,0.51263427734375,-0.78106689453125,42385.78784766667,-2.539233416945625,0.5759603821501661,-0.2810322476940127,-1.785194516181946,0.5063989162445068,-0.1768979132175446,0.09986793994903564,-0.2774677574634552,0.01301449537277222,XArbitraryZVertical,0.2287227987514732,0.2116641748899047,-0.9184353495267042,0.2436402778567553,0.5232740640640259,0.2773475348949432,-0.8057683110237122,42380.17683241667,unknown,2,2020-03-09 10:59:34.793 +0100,605440778.3857423,0,44258.25,100.3989
2020-03-09 10:59:40.425 +0100,42385.80794666667,0.5894012451171875,0.68292236328125,-0.92303466796875,42385.80292166667,-2.529944419845767,0.5831706161186397,-0.2977588172805821,-0.6713658571243286,0.1079591289162636,-0.04096402227878571,0.1412253975868225,0.3117108047008514,-0.02442681789398193,XArbitraryZVertical,0.2283256474917552,0.2210708886547012,-0.9160816925126449,0.2445183146869175,0.5264416337013245,0.2933783829212189,-0.7979901432991028,42380.17683241667,unknown,2,2020-03-09 10:59:34.793 +0100,605440778.3857423,0,44258.25,100.3989
2020-03-09 10:59:40.440 +0100,42385.82302066667,0.4568023681640625,0.485260009765625,-1.011123657226562,42385.81799566667,-2.527093428922587,0.584407163023167,-0.3000955892709032,0.05075298249721527,0.004585245624184608,0.1855025291442871,0.06235647201538086,0.3873128294944763,-0.126268744468689,XArbitraryZVertical,0.228194022091092,0.2225874996770403,-0.9155329160088014,0.2453193975840235,0.5270483493804932,0.2956115305423737,-0.796764612197876,42380.17683241667,unknown,2,2020-03-09 10:59:34.793 +0100,605440778.3857423,0,44258.25,100.3989
2020-03-09 10:59:40.455 +0100,42385.83809466667,0.439544677734375,0.0368499755859375,-0.976287841796875,42385.83307066667,-2.523113932058959,0.5876023749075907,-0.2974277418419378,-0.1185542866587639,0.283936470746994,0.3803828358650208,-0.09079897403717041,0.03630104660987854,-0.2085563540458679,XArbitraryZVertical,0.2296512536093174,0.2222504927351134,-0.9147427343172686,0.2472056769424678,0.5300267934799194,0.2930618524551392,-0.7957300543785095,42380.17683241667,unknown,2,2020-03-09 10:59:34.793 +0100,605440778.3857423,0,44258.25,100.3989
2020-03-09 10:59:40.483 +0100,42385.853169,0.4343719482421875,-0.0750579833984375,-0.8963165283203125,42385.848144,-2.516144685207645,0.5969233921529751,-0.2994486375835196,-0.5874558091163635,0.6923514008522034,0.1705748587846756,-0.09753835201263428,-0.258141428232193,-0.1860227584838867,XArbitraryZVertical,0.2327961861851207,0.2251090511671697,-0.9127529211804034,0.249025692474363,0.5370866656303406,0.2949934303760529,-0.7902637124061584,42380.17683241667,unknown,2,2020-03-09 10:59:34.793 +0100,605440778.3857423,0,44258.25,100.3989
2020-03-09 10:59:40.485 +0100,42385.868243,0.4562225341796875,0.1140289306640625,-0.761993408203125,42385.86321800001,-2.508050703893592,0.6121285465477229,-0.3074981203575907,-0.8120080232620239,0.9440062642097473,0.1171128004789352,-0.1114816665649414,-0.3364863991737366,-0.06641185283660889,XArbitraryZVertical,0.2374521658624565,0.2315118390784515,-0.9097705913409033,0.2496718967270105,0.5476579666137695,0.3026750683784485,-0.7800374627113342,42380.17683241667,unknown,2,2020-03-09 10:59:34.793 +0100,605440778.3857423,0,44258.25,100.3989
2020-03-09 10:59:40.500 +0100,42385.883317,0.5012054443359375,0.35107421875,-0.738739013671875,42385.878292,-2.498604638571894,0.6290649532118807,-0.3153978843656303,-0.7142494320869446,0.919671893119812,0.2473778575658798,-0.1031389236450195,-0.1961635947227478,0.006701529026031494,XArbitraryZVertical,0.2426892389442427,0.2382336631337002,-0.9063759454091737,0.2506575283757981,0.5593655109405518,0.3101947605609894,-0.7686933279037476,42380.17683241667,unknown,2,2020-03-09 10:59:34.793 +0100,605440778.3857423,0,44258.25,100.3989
2020-03-09 10:59:40.515 +0100,42385.898391,0.538055419921875,0.3311767578125,-0.7197265625,42385.893366,-2.488079775796082,0.646587229973295,-0.3203084112903737,-0.5895818471908569,0.9918776750564575,0.428612619638443,-0.05598080158233643,0.06972557306289673,0.02396976947784424,XArbitraryZVertical,0.248497297361708,0.2438735511070068,-0.9027926964147207,0.2524679792037667,0.5718235969543457,0.3148593008518219,-0.7575495839118958,42380.17683241667,unknown,2,2020-03-09 10:59:34.793 +0100,605440778.3857423,0,44258.25,100.3989
2020-03-09 10:59:40.530 +0100,42385.91346500001,0.559234619140625,0.2022705078125,-0.622589111328125,42385.908441,-2.477244920756692,0.6657630838093916,-0.3224970293206211,-0.5359405279159546,1.096699476242065,0.4283275306224823,-0.04775750637054443,0.01424324512481689,0.02617728710174561,XArbitraryZVertical,0.2554166750501469,0.2486188211734785,-0.8989590854688911,0.254604461632165,0.5858172178268433,0.3169358372688293,-0.7459020018577576,42380.17683241667,unknown,2,2020-03-09 10:59:34.793 +0100,605440778.3857423,0,44258.25,100.3989
2020-03-09 10:59:40.546 +0100,42385.92854,0.625,0.282318115234375,-0.5933685302734375,42385.923515,-2.4656588529804,0.6871006673144311,-0.3275246904835191,-0.9204689860343933,1.256028890609741,0.3071179687976837,-0.02328991889953613,-0.1205261051654816,0.1330865621566772,XArbitraryZVertical,0.262628706630088,0.255010023436811,-0.8946242478271816,0.2562096354552643,0.600580096244812,0.3217003047466278,-0.7319921255111694,42380.17683241667,unknown,2,2020-03-09 10:59:34.793 +0100,605440778.3857423,0,44258.25,100.3989
2020-03-09 10:59:40.561 +0100,42385.943614,0.6900787353515625,0.4693603515625,-0.5908355712890625,42385.938589,-2.450854241547533,0.7120236697662462,-0.3369084146244443,-1.194576382637024,1.371201038360596,0.3317162394523621,0.008368849754333496,-0.04825043678283691,0.1211147308349609,XArbitraryZVertical,0.2701150181041326,0.2641917115968169,-0.8892466783825148,0.2578388799608823,0.6166355609893799,0.3305709064006805,-0.7144812345504761,42380.17683241667,unknown,2,2020-03-09 10:59:34.793 +0100,605440778.3857423,0,44258.25,100.3989
2020-03-09 10:59:40.576 +0100,42385.95868800001,0.7088470458984375,0.43585205078125,-0.6321258544921875,42385.953663,-2.433054748843218,0.7389015680789014,-0.3464452832705736,-1.153973698616028,1.423848628997803,0.5083277225494385,0.07494688034057617,0.1493680477142334,0.08750319480895996,XArbitraryZVertical,0.2778531353050706,0.2741405762541385,-0.8831180820942419,0.2602823889865176,0.6334621906280518,0.3395564556121826,-0.695289134979248,42380.17683241667,unknown,2,2020-03-09 10:59:34.793 +0100,605440778.3857423,0,44258.25,100.3989
2020-03-09 10:59:40.591 +0100,42385.973762,0.67791748046875,0.253082275390625,-0.680389404296875,42385.968737,-2.41578003600834,0.7667436683713373,-0.351447370784893,-0.7927658557891846,1.474210739135742,0.5594401359558105,0.05746579170227051,0.09159743785858154,0.04402977228164673,XArbitraryZVertical,0.2867473163485922,0.2823106254814944,-0.8768675426445025,0.2630207360635839,0.6513859033584595,0.3442570567131042,-0.6761533617973328,42380.17683241667,unknown,2,2020-03-09 10:59:34.793 +0100,605440778.3857423,0,44258.25,100.3989
2020-03-09 10:59:40.606 +0100,42385.988836,0.64105224609375,0.16015625,-0.6379241943359375,42385.98381200001,-2.402035817806965,0.7940549561062307,-0.3547548116055742,-0.8333970308303833,1.531960606575012,0.3545624017715454,-0.01169747114181519,-0.1504126787185669,-0.013080894947052,XArbitraryZVertical,0.2960754470961563,0.2892811093408691,-0.8710465367768877,0.2644497604844852,0.668791651725769,0.3473604619503021,-0.6573115587234497,42380.17683241667,unknown,2,2020-03-09 10:59:34.793 +0100,605440778.3857423,0,44258.25,100.3989
2020-03-09 10:59:40.621 +0100,42386.00391,0.686981201171875,0.300689697265625,-0.7661285400390625,42385.998886,-2.386485416469745,0.8229995393441951,-0.3611725480661618,-1.113094806671143,1.568015336990356,0.3843741416931152,-0.04482859373092651,-0.193212628364563,-0.001769721508026123,XArbitraryZVertical,0.3050827559282535,0.2980747613134171,-0.8645998376447671,0.2655990914877293,0.6858857870101929,0.3533713817596436,-0.636151909828186,42380.17683241667,unknown,2,2020-03-09 10:59:34.793 +0100,605440778.3857423,0,44258.25,100.3989
2020-03-09 10:59:40.636 +0100,42386.018985,0.677642822265625,0.5120849609375,-0.85308837890625,42386.01396,-2.369785036420368,0.8527740049898316,-0.3671506289963117,-0.882040798664093,1.590367197990417,0.4114238619804382,-0.01084911823272705,0.01964619755744934,-0.1928012371063232,XArbitraryZVertical,0.314172407528539,0.3070350999711849,-0.8577529805352196,0.2669921341668656,0.7029165625572205,0.3589574098587036,-0.6140502691268921,42380.17683241667,unknown,2,2020-03-09 10:59:34.793 +0100,605440778.3857423,0,44258.25,100.3989
2020-03-09 10:59:40.651 +0100,42386.03405900001,0.64447021484375,0.5483856201171875,-0.8323974609375,42386.029034,-2.357079725331905,0.8807349756081,-0.3681512512872249,-0.4154359102249146,1.48680305480957,0.5248050093650818,-0.04188358783721924,0.15219646692276,-0.2591557502746582,XArbitraryZVertical,0.3239463891019631,0.3131994393828056,-0.8515949148680561,0.267863649179139,0.7195316553115845,0.3598911762237549,-0.5939297080039978,42380.17683241667,unknown,2,2020-03-09 10:59:34.793 +0100,605440778.3857423,0,44258.25,100.3989
2020-03-09 10:59:40.666 +0100,42386.049133,0.6551513671875,0.3928070068359375,-0.70709228515625,42386.044108,-2.347420299120221,0.9057497572884802,-0.3634725615725649,-0.1565637290477753,1.392516732215881,0.6981173157691956,-0.09486377239227295,0.1592815518379211,-0.2250209450721741,XArbitraryZVertical,0.3340110280230205,0.3163018252627142,-0.8461556628499903,0.2690915629135665,0.735478937625885,0.3555220663547516,-0.5767796039581299,42380.17683241667,unknown,2,2020-03-09 10:59:34.793 +0100,605440778.3857423,0,44258.25,100.3989
2020-03-09 10:59:40.681 +0100,42386.064207,0.7433929443359375,0.27069091796875,-0.5362548828125,42386.059182,-2.339508143389935,0.9291683821714082,-0.3563474372815753,-0.08253807574510574,1.342188000679016,0.6121364831924438,-0.09563696384429932,0.04395604133605957,-0.1461881995201111,XArbitraryZVertical,0.3441157214033184,0.3180155565625778,-0.8410420459630886,0.2703675362040342,0.7507937550544739,0.3488534688949585,-0.5609009265899658,42380.17683241667,unknown,2,2020-03-09 10:59:34.793 +0100,605440778.3857423,0,44258.25,100.3989
2020-03-09 10:59:40.696 +0100,42386.07928100001,0.921234130859375,0.2843017578125,-0.45111083984375,42386.074257,-2.332545675143327,0.9512534437553121,-0.3509540800041929,-0.2256731390953064,1.25049877166748,0.4989122152328491,0.03408688306808472,-0.0837816596031189,0.05323708057403564,XArbitraryZVertical,0.3533907536832274,0.3201258881916483,-0.8361661960064148,0.2710356770394467,0.7645179033279419,0.3437938988208771,-0.5452687740325928,42380.17683241667,unknown,2,2020-03-09 10:59:34.793 +0100,605440778.3857423,0,44258.25,100.3989
2020-03-09 10:59:40.712 +0100,42386.094356,0.9708099365234375,0.3268585205078125,-0.5301055908203125,42386.089331,-2.32417869235544,0.9718128904183428,-0.34669679448803,-0.2108104526996613,1.090293169021606,0.5748699307441711,0.1444720029830933,-0.05548885464668274,0.07914942502975464,XArbitraryZVertical,0.3615085076182469,0.3227740895208455,-0.831272610320579,0.2722391236474554,0.7767677307128906,0.3397929966449738,-0.530256986618042,42380.17683241667,unknown,2,2020-03-09 10:59:34.793 +0100,605440778.3857423,0,44258.25,100.3989
2020-03-09 10:59:40.727 +0100,42386.10943,0.8204498291015625,0.2994232177734375,-0.564239501953125,42386.10440500001,-2.318193509163745,0.9891313810433812,-0.3402532096181153,0.02134266495704651,0.9799624681472778,0.5375156998634338,0.1520558595657349,0.001100242137908936,-0.04573827981948853,XArbitraryZVertical,0.3690760088188453,0.3237652570898804,-0.8271423110685477,0.2734857931240137,0.7876471877098083,0.3337258100509644,-0.5179179310798645,42380.17683241667,unknown,2,2020-03-09 10:59:34.793 +0100,605440778.3857423,0,44258.25,100.3989
2020-03-09 10:59:40.742 +0100,42386.124504,0.73883056640625,0.2368011474609375,-0.4919891357421875,42386.119479,-2.313036119177323,1.00657778323952,-0.3332696915545283,-0.1105476915836334,1.123355865478516,0.6161924004554749,0.02194321155548096,-0.02770888805389404,-0.05890369415283203,XArbitraryZVertical,0.3769071334375181,0.3244609748159386,-0.8229916308780937,0.2745010081930602,0.7985125780105591,0.3271345496177673,-0.5053321719169617,42380.17683241667,unknown,2,2020-03-09 10:59:34.793 +0100,605440778.3857423,0,44258.25,100.3989
2020-03-09 10:59:40.756 +0100,42386.139578,0.79815673828125,0.291259765625,-0.456451416015625,42386.134553,-2.304254138054252,1.026801866670831,-0.3267949285410131,-0.3575119376182556,1.17267370223999,0.6820454597473145,-0.05384218692779541,-0.07501983642578125,0.01282989978790283,XArbitraryZVertical,0.3851388426596217,0.3264731285780736,-0.8177251500530226,0.2764215350614408,0.8103638291358948,0.3210092484951019,-0.4901667237281799,42380.17683241667,unknown,2,2020-03-09 10:59:34.793 +0100,605440778.3857423,0,44258.25,100.3989
2020-03-09 10:59:40.772 +0100,42386.154652,0.8135528564453125,0.3343048095703125,-0.478515625,42386.149628,-2.29384582017118,1.047722095830087,-0.3200565941322702,-0.2462088018655777,1.150206804275513,0.7626638412475586,-0.02413249015808105,-0.02335813641548157,0.0177299976348877,XArbitraryZVertical,0.3933834006546969,0.3288780094902167,-0.81196419356991,0.2789315129779715,0.8222953677177429,0.3146202862262726,-0.4741775095462799,42380.17683241667,unknown,2,2020-03-09 10:59:34.793 +0100,605440778.3857423,0,44258.25,100.3989
2020-03-09 10:59:40.787 +0100,42386.169727,0.8306121826171875,0.2762298583984375,-0.459747314453125,42386.164702,-2.286239291852755,1.066847061713266,-0.3107205744764331,0.004109046421945095,1.075487852096558,0.7683771252632141,-0.01785540580749512,0.0212228000164032,-0.02500402927398682,XArbitraryZVertical,0.4018514999635229,0.329595939439444,-0.8067128482316277,0.2812404255202722,0.8337489366531372,0.3057447969913483,-0.459763765335083,42380.17683241667,unknown,2,2020-03-09 10:59:34.793 +0100,605440778.3857423,0,44258.25,100.3989
2020-03-09 10:59:40.802 +0100,42386.184801,0.8946075439453125,0.25335693359375,-0.4066314697265625,42386.179776,-2.281165572369697,1.084193093925659,-0.3012451905366387,-0.04486016929149628,1.017683863639832,0.6401448249816895,-0.01350295543670654,-0.02047756314277649,-0.0131756067276001,XArbitraryZVertical,0.4100007484822774,0.3295686178852352,-0.8020430995162784,0.2828615791983129,0.8441211581230164,0.2967095673084259,-0.4465678334236145,42380.17683241667,unknown,2,2020-03-09 10:59:34.793 +0100,605440778.3857423,0,44258.25,100.3989
2020-03-09 10:59:40.817 +0100,42386.19987500001,0.880401611328125,0.2905731201171875,-0.456451416015625,42386.19485,-2.274354742201549,1.101225542175706,-0.2942905781458202,-0.2822863161563873,0.9800551533699036,0.6053535342216492,0.05393069982528687,-0.02733314037322998,0.007623255252838135,XArbitraryZVertical,0.4171595035690489,0.3308370712743776,-0.7972070005999854,0.2845797061501577,0.8534240126609802,0.2900609970092773,-0.4330495595932007,42380.17683241667,unknown,2,2020-03-09 10:59:34.793 +0100,605440778.3857423,0,44258.25,100.3989
2020-03-09 10:59:40.832 +0100,42386.214949,0.9057159423828125,0.3239593505859375,-0.4553985595703125,42386.209924,-2.265810652694245,1.118192802582771,-0.2876290939394053,-0.2566757500171661,0.9416418075561523,0.6559401750564575,0.01804071664810181,0.006895691156387329,-0.03710389137268066,XArbitraryZVertical,0.4238967034318895,0.332625760944127,-0.7920579262120016,0.2869074252546723,0.8623670935630798,0.2836795151233673,-0.4193433821201324,42380.17683241667,unknown,2,2020-03-09 10:59:34.793 +0100,605440778.3857423,0,44258.25,100.3989
2020-03-09 10:59:40.847 +0100,42386.230023,0.9688262939453125,0.3919830322265625,-0.526275634765625,42386.22499900001,-2.259033165327753,1.133031854658373,-0.2803941643987074,-0.1204762160778046,0.7611902356147766,0.589508593082428,0.07330942153930664,0.06826865673065186,-0.0624384880065918,XArbitraryZVertical,0.4301638386036333,0.3335849246040097,-0.7874923610525885,0.2890255950591986,0.8703306317329407,0.2767344415187836,-0.4073603451251984,42380.17683241667,unknown,2,2020-03-09 10:59:34.793 +0100,605440778.3857423,0,44258.25,100.3989
2020-03-09 10:59:40.862 +0100,42386.245097,0.907257080078125,0.3367462158203125,-0.5199737548828125,42386.240073,-2.254037397245187,1.144875817528377,-0.2715034728133705,0.07524968683719635,0.6416270136833191,0.7790629267692566,0.09153223037719727,0.1238047480583191,-0.1282467842102051,XArbitraryZVertical,0.4358691122926781,0.3331752957487256,-0.7836518282391425,0.2913795840213056,0.8773002028465271,0.2681801319122314,-0.3980246782302856,42380.17683241667,unknown,2,2020-03-09 10:59:34.793 +0100,605440778.3857423,0,44258.25,100.3989
2020-03-09 10:59:40.877 +0100,42386.260172,0.9108734130859375,0.2428741455078125,-0.5107574462890625,42386.255147,-2.252485464967164,1.153573964068269,-0.2584194719010329,0.4439307749271393,0.4589839577674866,0.8525882959365845,0.02855920791625977,0.04750373959541321,-0.1321086883544922,XArbitraryZVertical,0.4417765565870598,0.3300755394273531,-0.7806566807030282,0.2940383789009184,0.8838614225387573,0.2555528283119202,-0.3917672336101532,42380.17683241667,unknown,2,2020-03-09 10:59:34.793 +0100,605440778.3857423,0,44258.25,100.3989
2020-03-09 10:59:40.892 +0100,42386.275246,0.8798370361328125,0.160614013671875,-0.40765380859375,42386.27022100001,-2.25514877226616,1.158873641395337,-0.2431343265346018,0.6537619829177856,0.3479255437850952,0.8789147138595581,0.02147841453552246,0.002129793167114258,-0.1221571564674377,XArbitraryZVertical,0.447477581903091,0.3247548444997767,-0.7788149738421498,0.2962181100611742,0.8894010186195374,0.240745946764946,-0.3885962069034576,42380.17683241667,unknown,2,2020-03-09 10:59:34.793 +0100,605440778.3857423,0,44258.25,100.3989
2020-03-09 10:59:40.907 +0100,42386.29032,0.909912109375,0.1530609130859375,-0.3746185302734375,42386.285295,-2.258309666819157,1.162492160423241,-0.2271807580006035,0.5319437384605408,0.2401178926229477,0.8991134166717529,-0.009685218334197998,-0.07461056113243103,0.006255388259887695,XArbitraryZVertical,0.4526938349087787,0.3188144789943703,-0.7773182947824938,0.2986665749505495,0.8942128419876099,0.2252316176891327,-0.3868512511253357,42380.17683241667,unknown,2,2020-03-09 10:59:34.793 +0100,605440778.3857423,0,44258.25,100.3989
2020-03-09 10:59:40.922 +0100,42386.305394,0.9220123291015625,0.1297760009765625,-0.3957366943359375,42386.300369,-2.259091389276094,1.165986270008231,-0.2111177524080556,0.4257490038871765,0.2602497935295105,1.040795564651489,0.01114940643310547,-0.05649062991142273,0.01048547029495239,XArbitraryZVertical,0.4574594037724324,0.3133385141437055,-0.7754287050059665,0.3020928069418836,0.8987689018249512,0.2095529586076736,-0.3850997388362885,42380.17683241667,unknown,2,2020-03-09 10:59:34.793 +0100,605440778.3857423,0,44258.25,100.3989
2020-03-09 10:59:40.937 +0100,42386.32046800001,0.8950653076171875,0.1095123291015625,-0.3044891357421875,42386.315444,-2.259444718259946,1.170371174150412,-0.1934756286778325,0.5251024961471558,0.3242048025131226,1.033195495605469,0.01589465141296387,-0.08553424477577209,0.003177106380462646,XArbitraryZVertical,0.4627819000663744,0.3075134540247436,-0.7730791835994406,0.3059688272660231,0.9037131667137146,0.1922708302736282,-0.382536768913269,42380.17683241667,unknown,2,2020-03-09 10:59:34.793 +0100,605440778.3857423,0,44258.25,100.3989
2020-03-09 10:59:40.953 +0100,42386.335543,0.8832550048828125,0.176116943359375,-0.2607574462890625,42386.330518,-2.25959033466742,1.175930471503406,-0.1779579739061677,0.2401840537786484,0.4377345442771912,0.8809354901313782,-0.01339912414550781,-0.06750667095184326,0.07412415742874146,XArbitraryZVertical,0.4680561287198916,0.3026861584693819,-0.770524293242281,0.3091871805899437,0.9084705710411072,0.1770201623439789,-0.3786090910434723,42380.17683241667,unknown,2,2020-03-09 10:59:34.793 +0100,605440778.3857423,0,44258.25,100.3989
2020-03-09 10:59:40.988 +0100,42386.350617,0.926727294921875,0.227752685546875,-0.2791748046875,42386.34559200001,-2.255008159698371,1.185282482547088,-0.1651113383118025,-0.09706520289182663,0.6787626147270203,0.937626838684082,-0.0133625864982605,0.03385058045387268,0.1169276237487793,XArbitraryZVertical,0.4735104107335155,0.3005449657990633,-0.7664992106872028,0.3129527833783654,0.9140034914016724,0.1643621623516083,-0.3709212243556976,42380.17683241667,unknown,2,2020-03-09 10:59:34.793 +0100,605440778.3857423,0,44258.25,100.3989
2020-03-09 10:59:40.990 +0100,42386.365691,0.921783447265625,0.1856536865234375,-0.31658935546875,42386.360666,-2.24840438311347,1.196861091430077,-0.1521428257413096,-0.02734161168336868,0.716484010219574,0.9779306650161743,0.006589651107788086,0.07619711756706238,0.08189141750335693,XArbitraryZVertical,0.4795066105686663,0.299236367070009,-0.7615235111415869,0.3171953203954936,0.9201438426971436,0.1515565514564514,-0.3610620200634003,42380.17683241667,unknown,2,2020-03-09 10:59:34.793 +0100,605440778.3857423,0,44258.25,100.3989
2020-03-09 10:59:40.998 +0100,42386.380765,0.911407470703125,0.0885162353515625,-0.319061279296875,42386.37574,-2.243435635442402,1.208663735569168,-0.1384760619076306,0.0381883978843689,0.7295153737068176,0.916603147983551,-0.006995975971221924,0.009397417306900024,0.03580373525619507,XArbitraryZVertical,0.4859313211951789,0.2973747173083071,-0.7565810696090526,0.3209735866674511,0.9261917471885681,0.138033926486969,-0.3508780598640442,42380.17683241667,unknown,2,2020-03-09 10:59:34.793 +0100,605440780.9523439,0,44258.19,100.3995
2020-03-09 10:59:41.013 +0100,42386.395839,0.922607421875,0.0570220947265625,-0.3617095947265625,42386.39081500001,-2.23790465667257,1.220134718939232,-0.1263716118121009,-0.1680404245853424,0.7336792349815369,0.8875280022621155,-0.02024269104003906,-0.03751847147941589,0.02172303199768066,XArbitraryZVertical,0.4918008555776044,0.2962127256045233,-0.7516803548475113,0.3246019644355447,0.931656539440155,0.1260355263948441,-0.3407798707485199,42380.17683241667,unknown,2,2020-03-09 10:59:34.793 +0100,605440780.9523439,0,44258.19,100.3995
2020-03-09 10:59:41.028 +0100,42386.410914,0.9738006591796875,0.0834808349609375,-0.3832244873046875,42386.405889,-2.230805995606327,1.232513254754832,-0.1138859200380799,-0.08487077802419662,0.7716482877731323,0.9618884325027466,0.003571927547454834,-0.06355983018875122,-0.04799365997314453,XArbitraryZVertical,0.4978132679564141,0.2955044951217397,-0.746162323351675,0.328786681838345,0.9372149109840393,0.1136398985981941,-0.3297180831432343,42380.17683241667,unknown,2,2020-03-09 10:59:34.793 +0100,605440780.9523439,0,44258.19,100.3995
2020-03-09 10:59:41.047 +0100,42386.425988,0.9535369873046875,0.1158447265625,-0.3093414306640625,42386.420963,-2.226259226507047,1.24385316458985,-0.1001731175431965,0.07840612530708313,0.6546259522438049,0.9873915910720825,0.03152596950531006,-0.01652422547340393,-0.06368052959442139,XArbitraryZVertical,0.5040090726148684,0.2936069649086343,-0.7410870896753176,0.3325049216868553,0.9422807693481445,0.1000056713819504,-0.3195396065711975,42380.17683241667,unknown,2,2020-03-09 10:59:34.793 +0100,605440780.9523439,0,44258.19,100.3995
2020-03-09 10:59:41.065 +0100,42386.44106200001,0.9657745361328125,0.008514404296875,-0.319671630859375,42386.436037,-2.222938961917484,1.253395078058818,-0.08414719876895702,0.1540263146162033,0.5890280604362488,1.153656482696533,0.005665004253387451,0.0025310218334198,0.007181167602539062,XArbitraryZVertical,0.5101166229088496,0.2903168046466733,-0.7363101884859391,0.3366666534495544,0.9466881155967712,0.08404792845249176,-0.3109943568706512,42380.17683241667,unknown,2,2020-03-09 10:59:34.793 +0100,605440780.9523439,0,44258.19,100.3995
2020-03-09 10:59:41.080 +0100,42386.456136,0.95697021484375,-0.0400848388671875,-0.2911834716796875,42386.451111,-2.219782938482542,1.262883326954306,-0.06699577289355302,0.1629361063241959,0.6379325985908508,1.090435981750488,0.01495051383972168,-0.05843082070350647,-0.0172765851020813,XArbitraryZVertical,0.5163904773579264,0.2866105360481012,-0.7313361909664465,0.3410903806656072,0.9508302807807922,0.06694566458463669,-0.3023905456066132,42380.17683241667,unknown,2,2020-03-09 10:59:34.793 +0100,605440780.9523439,0,44258.19,100.3995
2020-03-09 10:59:41.088 +0100,42386.47121,0.9657135009765625,0.0810394287109375,-0.287841796875,42386.466185,-2.216833542858502,1.272533099355522,-0.05206072078424796,0.009848729707300663,0.6264997720718384,0.9632079005241394,-0.00108635425567627,-0.05498182773590088,0.006662726402282715,XArbitraryZVertical,0.5222837034416693,0.2837050139358397,-0.7265158789628936,0.3448271367114336,0.9545531868934631,0.05203720554709435,-0.2934623956680298,42380.17683241667,unknown,2,2020-03-09 10:59:34.793 +0100,605440780.9523439,0,44258.19,100.3995
2020-03-09 10:59:41.103 +0100,42386.48628400001,1.015228271484375,0.08319091796875,-0.2541351318359375,42386.48126,-2.211613831164933,1.28281260545444,-0.03726147572437412,-0.03380046039819717,0.6914976835250854,1.112367987632751,0.00756680965423584,0.04378679394721985,-0.004014849662780762,XArbitraryZVertical,0.5280103933272694,0.2815916026494541,-0.7210568306999633,0.3492679764159058,0.9581528306007385,0.03725285455584526,-0.2838223874568939,42380.17683241667,unknown,2,2020-03-09 10:59:34.793 +0100,605440780.9523439,0,44258.19,100.3995
2020-03-09 10:59:41.118 +0100,42386.501359,1.016281127929688,0.0268707275390625,-0.2267608642578125,42386.496334,-2.207560633658727,1.292573854248743,-0.02117882425321019,0.07261785864830017,0.5832740068435669,1.071356892585754,0.06038999557495117,0.04820460081100464,0.03574395179748535,XArbitraryZVertical,0.5339012120969996,0.2786697991071897,-0.7156683729614089,0.353710643338251,0.9613294005393982,0.02117724157869816,-0.2745852768421173,42380.17683241667,unknown,2,2020-03-09 10:59:34.793 +0100,605440780.9523439,0,44258.19,100.3995
2020-03-09 10:59:41.133 +0100,42386.516433,0.9890899658203125,-0.0551910400390625,-0.2702484130859375,42386.51140800001,-2.202978555876125,1.30133647419099,-0.005712783016422155,-0.1076364070177078,0.606174647808075,1.0797039270401,0.05238842964172363,0.02115800976753235,0.03945028781890869,XArbitraryZVertical,0.5391990607323778,0.2759730955045182,-0.7104314256174155,0.3583158758427362,0.9638990163803101,0.005712751764804125,-0.2662064433097839,42380.17683241667,unknown,2,2020-03-09 10:59:34.793 +0100,605440780.9523439,0,44258.19,100.3995
2020-03-09 10:59:41.148 +0100,42386.531507,0.986328125,-0.023345947265625,-0.291351318359375,42386.526482,-2.196285922403272,1.31084451170869,0.008308587144333171,-0.2982806265354156,0.5981026291847229,0.9350935220718384,0.021048903465271,-0.04380032420158386,-0.02522730827331543,XArbitraryZVertical,0.544165962112227,0.2745375552681674,-0.7047129370797468,0.3631693756073922,0.9663688540458679,-0.008308491669595242,-0.2570250630378723,42380.17683241667,unknown,2,2020-03-09 10:59:34.793 +0100,605440780.9523439,0,44258.19,100.3995
2020-03-09 10:59:41.164 +0100,42386.546581,0.9587249755859375,-0.189361572265625,-0.327301025390625,42386.541556,-2.184716588150449,1.319138720852391,0.02193111808323554,-0.4094947576522827,0.5279968976974487,1.18252170085907,0.01806634664535522,-0.001416712999343872,-0.04239678382873535,XArbitraryZVertical,0.5479278806379088,0.2744087240626149,-0.6983865930315754,0.3697713898011864,0.9682679772377014,-0.02192936092615128,-0.2489497810602188,42380.17683241667,unknown,2,2020-03-09 10:59:34.793 +0100,605440780.9523439,0,44258.19,100.3995
2020-03-09 10:59:41.178 +0100,42386.561655,0.9966278076171875,0.108673095703125,-0.3304901123046875,42386.556631,-2.177966713343062,1.325656226988158,0.03446354761897953,-0.2833970189094543,0.3796020746231079,0.6152195334434509,0.0008922815322875977,-0.06411528587341309,-0.1194464564323425,XArbitraryZVertical,0.5515079421187749,0.2730657984702325,-0.6935001927820933,0.3746084706709876,0.9695272445678711,-0.03445672616362572,-0.2425481230020523,42380.17683241667,unknown,2,2020-03-09 10:59:34.793 +0100,605440780.9523439,0,44258.19,100.3995
2020-03-09 10:59:41.194 +0100,42386.57673,1.041061401367188,0.015228271484375,-0.3656768798828125,42386.571705,-2.169504755847459,1.330979609466723,0.04400303418145121,-0.357415109872818,0.3224113583564758,1.003748774528503,0.02619284391403198,0.1526616811752319,-0.09319067001342773,XArbitraryZVertical,0.5538886240021552,0.2730568924691166,-0.6890011486891605,0.3793739771963007,0.9704411625862122,-0.04398883506655693,-0.2372946441173553,42380.17683241667,unknown,2,2020-03-09 10:59:34.793 +0100,605440780.9523439,0,44258.19,100.3995
2020-03-09 10:59:41.209 +0100,42386.591804,0.9672393798828125,0.0463714599609375,-0.30584716796875,42386.586779,-2.164481643909824,1.334009461869726,0.05869210391682277,0.1570882052183151,0.1648324429988861,0.924017071723938,0.04798543453216553,0.08320942521095276,-0.1368820667266846,XArbitraryZVertical,0.556847258866039,0.2698757538104561,-0.6849446636802748,0.384628209106127,0.9704227447509766,-0.0586584135890007,-0.2341764122247696,42380.17683241667,unknown,2,2020-03-09 10:59:34.793 +0100,605440780.9523439,0,44258.19,100.3995
2020-03-09 10:59:41.225 +0100,42386.60687800001,0.9995880126953125,-0.0067901611328125,-0.2025299072265625,42386.601853,-2.16565454602359,1.33715670736996,0.07158183926570777,0.3127062320709229,0.244189441204071,0.7782213091850281,-0.003093302249908447,0.1178917586803436,-0.07491558790206909,XArbitraryZVertical,0.560337804574121,0.2656277730302208,-0.6822753150112359,0.3872514633247805,0.9703388214111328,-0.07152072340250015,-0.2309268563985825,42380.17683241667,unknown,2,2020-03-09 10:59:34.793 +0100,605440780.9523439,0,44258.19,100.3995
2020-03-09 10:59:41.239 +0100,42386.621952,1.00897216796875,-0.0250091552734375,-0.20159912109375,42386.616927,-2.165479703853208,1.34044793419412,0.08411270390584202,0.01740508899092674,0.2043126076459885,0.8243858814239502,0.03955066204071045,0.07148554921150208,0.02983665466308594,XArbitraryZVertical,0.5636034288945946,0.261909188979663,-0.6793261356463538,0.3902185905563031,0.9701447486877441,-0.08401355892419815,-0.2275094985961914,42380.17683241667,unknown,2,2020-03-09 10:59:34.793 +0100,605440780.9523439,0,44258.19,100.3995
2020-03-09 10:59:41.254 +0100,42386.637026,0.99462890625,-0.0738067626953125,-0.199554443359375,42386.63200200001,-2.161396627211204,1.343738631970535,0.09522059693991561,-0.1587910503149033,0.2822037637233734,0.7136765718460083,0.03905922174453735,0.07006704807281494,0.02249753475189209,XArbitraryZVertical,0.5660905705707143,0.2597989840366752,-0.6758031741868779,0.394126618506089,0.9699190258979797,-0.09507676959037781,-0.2240919023752213,42380.17683241667,unknown,2,2020-03-09 10:59:34.793 +0100,605440780.9523439,0,44258.19,100.3995
2020-03-09 10:59:41.269 +0100,42386.6521,0.9723358154296875,-0.041900634765625,-0.2215423583984375,42386.647076,-2.156333228144779,1.34731445102816,0.1036787324169856,-0.2577349245548248,0.2465089410543442,0.5611562132835388,0.01915508508682251,0.03171509504318237,0.02105444669723511,XArbitraryZVertical,0.5680822888030841,0.2589680394373668,-0.6724002704183738,0.3976126833576086,0.9698953032493591,-0.1034930869936943,-0.2204361408948898,42380.17683241667,unknown,2,2020-03-09 10:59:34.793 +0100,605440780.9523439,0,44258.19,100.3995
2020-03-09 10:59:41.284 +0100,42386.667175,0.957794189453125,-0.0359649658203125,-0.250091552734375,42386.66215,-2.150238732699663,1.350474676152745,0.1105060221636621,-0.2870322465896606,0.2791216969490051,0.5229220986366272,0.002466678619384766,0.0683799684047699,-0.004327297210693359,XArbitraryZVertical,0.5695154208063394,0.2589342697927209,-0.6691493890328887,0.4010538176405616,0.9698749184608459,-0.1102812513709068,-0.2172104567289352,42380.17683241667,unknown,2,2020-03-09 10:59:34.793 +0100,605440780.9523439,0,44258.19,100.3995
2020-03-09 10:59:41.299 +0100,42386.682249,0.9627532958984375,-0.0439605712890625,-0.2462005615234375,42386.677224,-2.145137342973564,1.353698786399867,0.1164801974129565,-0.1883365511894226,0.2516940534114838,0.4221459031105042,-0.00917971134185791,0.0804344117641449,-0.04863190650939941,XArbitraryZVertical,0.5709471875378161,0.2589420878788042,-0.6661976898152028,0.4039167142700458,0.9699094891548157,-0.1162169799208641,-0.2139366120100021,42380.17683241667,unknown,2,2020-03-09 10:59:34.793 +0100,605440780.9523439,0,44258.19,100.3995
2020-03-09 10:59:41.314 +0100,42386.697323,0.9844207763671875,-0.0912628173828125,-0.2346343994140625,42386.692298,-2.141272997582306,1.357015832639286,0.1216204792452768,-0.1819527894258499,0.2482464760541916,0.3888986706733704,-0.007257819175720215,0.07735955715179443,-0.03560692071914673,XArbitraryZVertical,0.5724222463479538,0.2589177870578366,-0.6635923901500737,0.4061273164110955,0.9700172543525696,-0.1213208734989166,-0.2105887085199356,42380.17683241667,unknown,2,2020-03-09 10:59:34.793 +0100,605440780.9523439,0,44258.19,100.3995
2020-03-09 10:59:41.332 +0100,42386.712397,0.9820556640625,-0.10986328125,-0.2667083740234375,42386.707372,-2.137518229057038,1.360054407238563,0.1265676408576777,-0.1317785382270813,0.2048817425966263,0.3851086795330048,0.01919502019882202,0.01969233155250549,-0.03523480892181396,XArbitraryZVertical,0.5737807278435213,0.2588814209419593,-0.661107470986761,0.4082804191472043,0.9700539112091064,-0.1262299865484238,-0.2075121700763702,42380.17683241667,unknown,2,2020-03-09 10:59:34.793 +0100,605440780.9523439,0,44258.19,100.3995
