loggingTime(txt),locationTimestamp_since1970(s),locationLatitude(WGS84),locationLongitude(WGS84),locationAltitude(m),locationSpeed(m/s),locationCourse(°),locationVerticalAccuracy(m),locationHorizontalAccuracy(m),locationFloor(Z),accelerometerTimestamp_sinceReboot(s),accelerometerAccelerationX(G),accelerometerAccelerationY(G),accelerometerAccelerationZ(G),motionTimestamp_sinceReboot(s),motionYaw(rad),motionRoll(rad),motionPitch(rad),motionRotationRateX(rad/s),motionRotationRateY(rad/s),motionRotationRateZ(rad/s),motionUserAccelerationX(G),motionUserAccelerationY(G),motionUserAccelerationZ(G),motionAttitudeReferenceFrame(txt),motionQuaternionX(R),motionQuaternionY(R),motionQuaternionZ(R),motionQuaternionW(R),motionGravityX(G),motionGravityY(G),motionGravityZ(G),activityTimestamp_sinceReboot(s),activity(txt),activityActivityConfidence(Z),activityActivityStartDate(txt),altimeterTimestamp_sinceReboot(s),altimeterReset(bool),altimeterRelativeAltitude(m),altimeterPressure(kPa)
2020-03-09 10:29:17.269 +0100,1583746157.142264,52.56375625553109,13.41012808994314,47.2214,2.020238,236.712143498924,1.233685688920021,39.84437686389176,-9999,41179.88311516667,-0.0514068603515625,-0.21783447265625,-0.98223876953125,41179.87306616667,0.0120570848670613,-0.05842142044987905,0.1894399030284777,0.02910884097218513,-0.02220353484153748,-0.006797915324568748,0.007096730172634125,0.03999437391757965,-0.02139681577682495,XArbitraryZVertical,0.09471160476793858,-0.02850518647148669,0.003236663638502096,0.9950912121422858,-0.05734362080693245,-0.1883088499307632,-0.9804343581199646,41161.41030575,unknown,2,2020-03-09 10:28:58.775 +0100,605438739.1083249,0,9.949219,100.3727
2020-03-09 10:29:17.277 +0100,1583746157.142264,52.56375625553109,13.41012808994314,47.2214,2.020238,236.712143498924,1.233685688920021,39.84437686389176,-9999,41179.89818816667,-0.0529632568359375,-0.1864776611328125,-0.979095458984375,41179.88813916667,0.01201146180028486,-0.05819486590617286,0.1888994494311349,-0.0163026936352253,0.01671323738992214,0.01310368813574314,0.005705576390028,-0.01935912668704987,-0.004421412944793701,XArbitraryZVertical,0.09444168878215607,-0.02839698148658402,0.003232672507653538,0.9951200270111766,-0.05712740868330002,-0.187778040766716,-0.9805487394332886,41161.41030575,unknown,2,2020-03-09 10:28:58.775 +0100,605438739.1083249,0,9.949219,100.3727
2020-03-09 10:29:17.279 +0100,1583746157.142264,52.56375625553109,13.41012808994314,47.2214,2.020238,236.712143498924,1.233685688920021,39.84437686389176,-9999,41179.91326116667,-0.066314697265625,-0.1687774658203125,-0.9855194091796875,41179.90321316667,0.01236272566719039,-0.05832077054806414,0.1880889815334787,-0.005366005469113588,0.006977577693760395,0.01547356881201267,0.004296746104955673,0.0005051493644714355,0.001597583293914795,XArbitraryZVertical,0.09404363955587065,-0.02844664365713886,0.00341349975175121,0.9951557018734319,-0.05725971609354019,-0.1869819164276123,-0.9806931614875793,41161.41030575,unknown,2,2020-03-09 10:28:58.775 +0100,605438739.1083249,0,9.949219,100.3727
2020-03-09 10:29:17.294 +0100,1583746157.142264,52.56375625553109,13.41012808994314,47.2214,2.020238,236.712143498924,1.233685688920021,39.84437686389176,-9999,41179.92833516667,-0.0583343505859375,-0.1868438720703125,-0.982025146484375,41179.91828616667,0.01230548925212879,-0.05790673282557111,0.1886189665286418,-0.002546763513237238,0.01536524761468172,-0.009658516384661198,-0.009054489433765411,0.02141156792640686,-0.00339120626449585,XArbitraryZVertical,0.0943058290837881,-0.02824097681570342,0.003396698092740996,0.9951367193136962,-0.05684792250394821,-0.187502533197403,-0.9806177020072937,41161.41030575,unknown,2,2020-03-09 10:28:58.775 +0100,605438739.1083249,0,9.949219,100.3727
2020-03-09 10:29:17.309 +0100,1583746157.142264,52.56375625553109,13.41012808994314,47.2214,2.020238,236.712143498924,1.233685688920021,39.84437686389176,-9999,41179.94340816667,-0.0559844970703125,-0.1859893798828125,-0.9756927490234375,41179.93335916667,0.01226084522088716,-0.05737961820599873,0.1891033324318119,-0.02760364674031734,0.01912429928779602,0.009547668509185314,-0.002008266746997833,0.001135319471359253,-0.001468479633331299,XArbitraryZVertical,0.09454529651917606,-0.02797867117454092,0.003392283381730678,0.995121480987368,-0.05632580071687698,-0.1879782825708389,-0.9805567860603333,41161.41030575,unknown,2,2020-03-09 10:28:58.775 +0100,605438739.1083249,0,9.949219,100.3727
2020-03-09 10:29:17.325 +0100,1583746157.142264,52.56375625553109,13.41012808994314,47.2214,2.020238,236.712143498924,1.233685688920021,39.84437686389176,-9999,41179.958480125,-0.0521392822265625,-0.19183349609375,-0.95831298828125,41179.94843216667,0.01237750961694613,-0.0573886421842463,0.1884547062208723,0.004470646381378174,0.0114085441455245,0.006017748266458511,-0.0004513002932071686,-0.001622766256332397,0.001444876194000244,XArbitraryZVertical,0.09422421517898952,-0.02798051924649092,0.003459356651451131,0.995151691569901,-0.05634163320064545,-0.187341183423996,-0.9806777834892273,41161.41030575,unknown,2,2020-03-09 10:28:58.775 +0100,605438739.1083249,0,9.949219,100.3727
2020-03-09 10:29:17.339 +0100,1583746157.142264,52.56375625553109,13.41012808994314,47.2214,2.020238,236.712143498924,1.233685688920021,39.84437686389176,-9999,41179.973554125,-0.0519256591796875,-0.195953369140625,-0.95648193359375,41179.963505125,0.01236005670922513,-0.05716957345873361,0.1882208819321067,-0.01556165050715208,0.005758354440331459,-0.007217961363494396,0.003990311175584793,-0.00472104549407959,0.02242070436477661,XArbitraryZVertical,0.09410725618990472,-0.02787337296030687,0.00346438761881836,0.995165683533123,-0.05612929537892342,-0.187111496925354,-0.9807338118553162,41161.41030575,unknown,2,2020-03-09 10:28:58.775 +0100,605438739.1083249,0,9.949219,100.3727
2020-03-09 10:29:17.354 +0100,1583746157.142264,52.56375625553109,13.41012808994314,47.2214,2.020238,236.712143498924,1.233685688920021,39.84437686389176,-9999,41179.988627125,-0.047637939453125,-0.1916656494140625,-0.9718475341796875,41179.978578125,0.01216056389799648,-0.05719048252680356,0.1879821782813853,-0.05238877236843109,-0.0237103383988142,-0.007691505365073681,-0.0006558224558830261,-0.00872446596622467,0.0232117772102356,XArbitraryZVertical,0.09398573686564286,-0.02789420572664824,0.003367605021162295,0.9951769382330968,-0.0561523549258709,-0.1868769973516464,-0.9807772040367126,41161.41030575,unknown,2,2020-03-09 10:28:58.775 +0100,605438739.1083249,0,9.949219,100.3727
2020-03-09 10:29:17.370 +0100,1583746157.142264,52.56375625553109,13.41012808994314,47.2214,2.020238,236.712143498924,1.233685688920021,39.84437686389176,-9999,41180.003700125,-0.0601806640625,-0.1778411865234375,-0.97918701171875,41179.99365112501,0.01209746474547264,-0.05762588349203869,0.1867022948335303,-0.09471359848976135,-0.0235058069229126,0.003588313236832619,0.008955482393503189,-0.006045162677764893,0.00914299488067627,XArbitraryZVertical,0.09334873240108363,-0.02811939780348563,0.003334463746561048,0.9952306525547557,-0.05659310892224312,-0.18561951816082,-0.9809906482696533,41161.41030575,unknown,2,2020-03-09 10:28:58.775 +0100,605438739.1083249,0,9.949219,100.3727
2020-03-09 10:29:17.385 +0100,1583746157.142264,52.56375625553109,13.41012808994314,47.2214,2.020238,236.712143498924,1.233685688920021,39.84437686389176,-9999,41180.018773125,-0.0612335205078125,-0.179656982421875,-0.989044189453125,41180.008725125,0.01202465007525318,-0.05792579884880887,0.1852726454336246,-0.07343515008687973,-0.01228151563555002,-0.005207075737416744,-0.002636857330799103,0.001613572239875793,0.004003524780273438,XArbitraryZVertical,0.09263678563735335,-0.02827823718233255,0.003305241480726018,0.9952928056845075,-0.05690262466669083,-0.1842145174741745,-0.981237530708313,41161.41030575,unknown,2,2020-03-09 10:28:58.775 +0100,605438739.1083249,0,9.949219,100.3727
2020-03-09 10:29:17.400 +0100,1583746157.142264,52.56375625553109,13.41012808994314,47.2214,2.020238,236.712143498924,1.233685688920021,39.84437686389176,-9999,41180.033847125,-0.058013916015625,-0.193359375,-0.98345947265625,41180.023798125,0.01181013489162235,-0.05808297069820937,0.1844896406320994,-0.04811375215649605,-0.005893553607165813,-0.0102027328684926,-0.004168003797531128,0.003788858652114868,-0.007672011852264404,XArbitraryZVertical,0.09224434649083542,-0.02836973840814004,0.00320274189054141,0.995327018701245,-0.0570652037858963,-0.1834448575973511,-0.9813722968101501,41161.41030575,unknown,2,2020-03-09 10:28:58.775 +0100,605438739.1083249,0,9.949219,100.3727
2020-03-09 10:29:17.415 +0100,1583746157.142264,52.56375625553109,13.41012808994314,47.2214,2.020238,236.712143498924,1.233685688920021,39.84437686389176,-9999,41180.048920125,-0.05999755859375,-0.1777801513671875,-0.9802093505859375,41180.03887112501,0.01175575358021617,-0.05799633366279046,0.1840401548584855,-0.007529480382800102,0.0106970677152276,0.009901968762278557,-0.004492379724979401,-0.008386999368667603,-0.002015411853790283,XArbitraryZVertical,0.09201975780502179,-0.02833104734943647,0.003186283899780314,0.9953488698662003,-0.05698495358228683,-0.1830029785633087,-0.9814594388008118,41161.41030575,unknown,2,2020-03-09 10:28:58.775 +0100,605438739.1083249,0,9.949219,100.3727
2020-03-09 10:29:17.430 +0100,1583746157.142264,52.56375625553109,13.41012808994314,47.2214,2.020238,236.712143498924,1.233685688920021,39.84437686389176,-9999,41180.063993125,-0.0529327392578125,-0.1854248046875,-0.976409912109375,41180.053944125,0.01183025216926372,-0.05773687266552954,0.1846655194398533,0.06159685552120209,0.0207638181746006,-0.003381878137588501,-0.003273546695709229,0.00583861768245697,0.001150250434875488,XArbitraryZVertical,0.09233160296083225,-0.02819581889724315,0.00322614086709732,0.9953237659156484,-0.05672368779778481,-0.1836177557706833,-0.9813597202301025,41161.41030575,unknown,2,2020-03-09 10:28:58.775 +0100,605438739.1083249,0,9.949219,100.3727
2020-03-09 10:29:17.445 +0100,1583746157.142264,52.56375625553109,13.41012808994314,47.2214,2.020238,236.712143498924,1.233685688920021,39.84437686389176,-9999,41180.079066125,-0.0628204345703125,-0.176605224609375,-0.9698944091796875,41180.069018125,0.01206866674544855,-0.0574412681876199,0.1855983617832921,0.03043793141841888,0.01735297217965126,0.03487839177250862,0.000897333025932312,0.003123968839645386,0.00571054220199585,XArbitraryZVertical,0.09279869113870264,-0.02803366317588983,0.003344841309460745,0.9952844490237155,-0.05642373114824295,-0.1845346540212631,-0.9812050461769104,41161.41030575,unknown,2,2020-03-09 10:28:58.775 +0100,605438739.1083249,0,9.949219,100.3727
2020-03-09 10:29:17.460 +0100,1583746157.142264,52.56375625553109,13.41012808994314,47.2214,2.020238,236.712143498924,1.233685688920021,39.84437686389176,-9999,41180.094140125,-0.0630340576171875,-0.1724395751953125,-0.985076904296875,41180.08409112501,0.01265977119021783,-0.05712086265085367,0.1857111254748011,-0.006072047166526318,0.02795840427279472,0.03158615902066231,-0.006711941212415695,0.008041322231292725,0.01130777597427368,XArbitraryZVertical,0.092862498132602,-0.02784628184843948,0.003652231539765138,0.9952827234947966,-0.05610815808176994,-0.1846454739570618,-0.9812023043632507,41161.41030575,unknown,2,2020-03-09 10:28:58.775 +0100,605438739.1083249,0,9.949219,100.3727
2020-03-09 10:29:17.475 +0100,1583746157.142264,52.56375625553109,13.41012808994314,47.2214,2.020238,236.712143498924,1.233685688920021,39.84437686389176,-9999,41180.109213125,-0.0552215576171875,-0.1903076171875,-0.9881134033203125,41180.099164125,0.01286806521726094,-0.05684797060394711,0.1854405220839188,-0.02706049382686615,0.01575698517262936,0.0009493539109826088,-0.009891282767057419,0.01302441954612732,0.003377258777618408,XArbitraryZVertical,0.09273023136691511,-0.02770203250224816,0.003772467521068008,0.9952985563931298,-0.05584323033690453,-0.184379518032074,-0.9812673926353455,41161.41030575,unknown,2,2020-03-09 10:28:58.775 +0100,605438739.1083249,0,9.949219,100.3727
2020-03-09 10:29:17.490 +0100,1583746157.142264,52.56375625553109,13.41012808994314,47.2214,2.020238,236.712143498924,1.233685688920021,39.84437686389176,-9999,41180.124286125,-0.044769287109375,-0.20184326171875,-0.9880218505859375,41180.114237125,0.01277391643811685,-0.05661803581539406,0.1846564400388281,-0.07327751815319061,0.02501280046999454,-0.009854025207459927,0.00040455162525177,-0.006697699427604675,-0.006689250469207764,XArbitraryZVertical,0.09233830043262981,-0.02759548674003122,0.003747555666670208,0.9953380965582554,-0.05562576279044151,-0.1836088299751282,-0.9814242720603943,41161.41030575,unknown,2,2020-03-09 10:28:58.775 +0100,605438739.1083249,0,9.949219,100.3727
2020-03-09 10:29:17.506 +0100,1583746157.142264,52.56375625553109,13.41012808994314,47.2214,2.020238,236.712143498924,1.233685688920021,39.84437686389176,-9999,41180.139360125,-0.037078857421875,-0.2089996337890625,-0.9951934814453125,41180.12931112501,0.01254570661531397,-0.05621414904283988,0.1839240335458366,-0.01372677087783813,0.02084560319781303,-0.01443812437355518,0.005081634968519211,-0.01623724400997162,-0.001360177993774414,XArbitraryZVertical,0.09196992618042105,-0.02740825460133738,0.003663087977752378,0.9953776529010426,-0.05523691698908806,-0.1828888207674026,-0.9815806150436401,41161.41030575,unknown,2,2020-03-09 10:28:58.775 +0100,605438739.1083249,0,9.949219,100.3727
2020-03-09 10:29:17.520 +0100,1583746157.142264,52.56375625553109,13.41012808994314,47.2214,2.020238,236.712143498924,1.233685688920021,39.84437686389176,-9999,41180.154433125,-0.0546875,-0.2141265869140625,-0.9849090576171875,41180.144384125,0.01257731187099711,-0.05574051178637118,0.1841412660130617,0.03582415729761124,0.05097800493240356,0.04027511924505234,0.01769127696752548,-0.0258961021900177,-0.0136265754699707,XArbitraryZVertical,0.09207759276331826,-0.02717011743652018,0.003697521170047921,0.995374138869371,-0.05476978048682213,-0.1831023842096329,-0.9815670251846313,41161.41030575,unknown,2,2020-03-09 10:28:58.775 +0100,605438739.1083249,0,9.949219,100.3727
2020-03-09 10:29:17.535 +0100,1583746157.142264,52.56375625553109,13.41012808994314,47.2214,2.020238,236.712143498924,1.233685688920021,39.84437686389176,-9999,41180.169506125,-0.0471343994140625,-0.195465087890625,-0.985870361328125,41180.159457125,0.01457292042253162,-0.05535403355412431,0.1846588430919586,0.04485157132148743,0.04336392134428024,0.1812811493873596,0.006381373852491379,-0.03451204299926758,-0.004606008529663086,XArbitraryZVertical,0.09236133089296782,-0.02688334801735937,0.004701201500190225,0.995351375041463,-0.05438517406582832,-0.1836111843585968,-0.981493353843689,41161.41030575,unknown,2,2020-03-09 10:28:58.775 +0100,605438739.1083249,0,9.949219,100.3727
2020-03-09 10:29:17.550 +0100,1583746157.142264,52.56375625553109,13.41012808994314,47.2214,2.020238,236.712143498924,1.233685688920021,39.84437686389176,-9999,41180.184579125,-0.0568695068359375,-0.1901397705078125,-0.981842041015625,41180.17453112501,0.01715702379628622,-0.05544188550748214,0.1852040248622604,0.05950401723384857,0.02106074616312981,0.1355565339326859,0.00733179971575737,-0.01131685078144073,-0.004482030868530273,XArbitraryZVertical,0.09266755570684643,-0.02680468581560301,0.005975445519363418,0.9953182190019924,-0.05446584522724152,-0.1841470748186111,-0.9813884496688843,41161.41030575,unknown,2,2020-03-09 10:28:58.775 +0100,605438739.1083249,0,9.949219,100.3727
2020-03-09 10:29:17.565 +0100,1583746157.142264,52.56375625553109,13.41012808994314,47.2214,2.020238,236.712143498924,1.233685688920021,39.84437686389176,-9999,41180.199653125,-0.0569305419921875,-0.208709716796875,-0.9845123291015625,41180.189604125,0.01896007535504945,-0.0554663855608804,0.1860974288580771,0.08639410138130188,0.02814643830060959,0.1193836852908134,0.004600118845701218,-0.003084063529968262,-0.006662189960479736,XArbitraryZVertical,0.09313634144455445,-0.02672796160675187,0.006858887251753626,0.9952708600392848,-0.05448074638843536,-0.1850251257419586,-0.9812224507331848,41161.41030575,unknown,2,2020-03-09 10:28:58.775 +0100,605438739.1083249,0,9.949219,100.3727
2020-03-09 10:29:17.581 +0100,1583746157.142264,52.56375625553109,13.41012808994314,47.2214,2.020238,236.712143498924,1.233685688920021,39.84437686389176,-9999,41180.214726125,-0.0688934326171875,-0.2069549560546875,-0.9875335693359375,41180.204677125,0.02130614658009654,-0.05566066818658268,0.1886877007975591,0.3066864311695099,-0.001199953258037567,0.1330832242965698,-0.002285666763782501,-0.02113854885101318,-0.003782391548156738,XArbitraryZVertical,0.09445725167438061,-0.02669826805505006,0.007980150331069578,0.995138850670498,-0.05464453250169754,-0.1875700503587723,-0.9807300567626953,41161.41030575,unknown,2,2020-03-09 10:28:58.775 +0100,605438739.1083249,0,9.949219,100.3727
2020-03-09 10:29:17.596 +0100,1583746157.142264,52.56375625553109,13.41012808994314,47.2214,2.020238,236.712143498924,1.233685688920021,39.84437686389176,-9999,41180.229799125,-0.1072998046875,-0.2252044677734375,-0.923187255859375,41180.219750125,0.0216927587912299,-0.05544665789137323,0.1952059203438004,0.465384840965271,0.01327722705900669,-0.1542408317327499,0.004973374307155609,-0.01655580103397369,-0.008414983749389648,XArbitraryZVertical,0.09770411968317612,-0.02652969541138483,0.008089317883805219,0.9948288948085844,-0.05436573550105095,-0.1939685493707657,-0.9795001745223999,41161.41030575,unknown,2,2020-03-09 10:28:58.775 +0100,605438739.1083249,0,9.949219,100.3727
2020-03-09 10:29:17.611 +0100,1583746157.142264,52.56375625553109,13.41012808994314,47.2214,2.020238,236.712143498924,1.233685688920021,39.84437686389176,-9999,41180.244872125,-0.0191650390625,-0.2838897705078125,-0.962249755859375,41180.234824125,0.01784653065771339,-0.05469116708880797,0.1974979192640128,-0.1684679985046387,0.04125053435564041,-0.2000812888145447,-0.05369818583130836,-0.02898673713207245,0.05590707063674927,XArbitraryZVertical,0.09879056668932576,-0.02632850053088513,0.006180838040875419,0.9947405747121828,-0.05360127240419388,-0.1962165087461472,-0.9790944457054138,41161.41030575,unknown,2,2020-03-09 10:28:58.775 +0100,605438957.5151852,0,44261.2,100.371
2020-03-09 10:29:17.626 +0100,1583746157.142264,52.56375625553109,13.41012808994314,47.2214,2.020238,236.712143498924,1.233685688920021,39.84437686389176,-9999,41180.259946125,-0.041534423828125,-0.180389404296875,-0.9818115234375,41180.249897125,0.01710812091108564,-0.05322875456230192,0.1943025624694137,-0.1910414844751358,0.05022752285003662,0.02011366188526154,0.003756143152713776,-0.1051801294088364,0.03930205106735229,XArbitraryZVertical,0.09718718729973901,-0.02565535444616382,0.005929448899715757,0.9949177356987222,-0.05220246687531471,-0.1930822730064392,-0.9797928929328918,41161.41030575,unknown,2,2020-03-09 10:28:58.775 +0100,605438957.5151852,0,44261.2,100.371
2020-03-09 10:29:17.641 +0100,1583746157.142264,52.56375625553109,13.41012808994314,47.2214,2.020238,236.712143498924,1.233685688920021,39.84437686389176,-9999,41180.275019125,-0.076751708984375,-0.1748199462890625,-0.97503662109375,41180.264970125,0.01621874701199558,-0.05288650059449292,0.1931424140583263,0.0203233789652586,0.01465064845979214,-0.09282606840133667,0.01034486293792725,0.01155565679073334,-0.001777887344360352,XArbitraryZVertical,0.09659771757256308,-0.02553447798382461,0.005519370389875848,0.9949804956967294,-0.05187893286347389,-0.1919438242912292,-0.9800337553024292,41161.41030575,unknown,2,2020-03-09 10:28:58.775 +0100,605438957.5151852,0,44261.2,100.371
2020-03-09 10:29:17.656 +0100,1583746157.142264,52.56375625553109,13.41012808994314,47.2214,2.020238,236.712143498924,1.233685688920021,39.84437686389176,-9999,41180.290092125,-0.0510406494140625,-0.1913604736328125,-0.97491455078125,41180.280043125,0.01552590090381307,-0.05230884110925393,0.1936615279233132,0.02362086623907089,0.03324421867728233,-0.005629186518490314,-0.02523015812039375,0.0194808691740036,0.003584384918212891,XArbitraryZVertical,0.0968456066211458,-0.02527789740613739,0.005195632980359572,0.9949647328071249,-0.05130758136510849,-0.1924532502889633,-0.9799638986587524,41161.41030575,unknown,2,2020-03-09 10:28:58.775 +0100,605438957.5151852,0,44261.2,100.371
2020-03-09 10:29:17.671 +0100,1583746157.142264,52.56375625553109,13.41012808994314,47.2214,2.020238,236.712143498924,1.233685688920021,39.84437686389176,-9999,41180.305166125,-0.0320281982421875,-0.208648681640625,-0.9824981689453125,41180.295117125,0.0153167152665884,-0.05194781645793754,0.1944317169280631,0.06472436338663101,0.01743436045944691,-0.03642331808805466,-9.422004222869873e-05,0.001849815249443054,0.004919350147247314,XArbitraryZVertical,0.0972251781163596,-0.02510451985188694,0.005098808489075258,0.9949325933214676,-0.05094607546925545,-0.1932089924812317,-0.9798340797424316,41161.41030575,unknown,2,2020-03-09 10:28:58.775 +0100,605438957.5151852,0,44261.2,100.371
2020-03-09 10:29:17.686 +0100,1583746157.142264,52.56375625553109,13.41012808994314,47.2214,2.020238,236.712143498924,1.233685688920021,39.84437686389176,-9999,41180.320239125,-0.0330963134765625,-0.212005615234375,-0.974090576171875,41180.310190125,0.01507409653824026,-0.05195994323043632,0.1958491403903969,0.1001703143119812,0.008113977499306202,0.002649050205945969,0.01275128126144409,-0.008585259318351746,-0.001794934272766113,XArbitraryZVertical,0.09792722414162711,-0.02511523712743957,0.0049586819714805,0.9948642518044276,-0.05094368383288383,-0.1945995092391968,-0.9795589447021484,41161.41030575,unknown,2,2020-03-09 10:28:58.775 +0100,605438957.5151852,0,44261.2,100.371
2020-03-09 10:29:17.701 +0100,1583746157.142264,52.56375625553109,13.41012808994314,47.2214,2.020238,236.712143498924,1.233685688920021,39.84437686389176,-9999,41180.335312125,-0.0418701171875,-0.2249908447265625,-0.9533233642578125,41180.325263125,0.01548741852353068,-0.05227497737562192,0.1982215234130643,0.09241867065429688,0.01072551682591438,0.01816026493906975,0.01813202723860741,-0.01507841050624847,0.004988372325897217,XArbitraryZVertical,0.09911320266193339,-0.02523951977189402,0.005117102962982062,0.9947428455803857,-0.05122800916433334,-0.1969259977340698,-0.9790790677070618,41161.41030575,unknown,2,2020-03-09 10:28:58.775 +0100,605438957.5151852,0,44261.2,100.371
2020-03-09 10:29:17.716 +0100,1583746157.142264,52.56375625553109,13.41012808994314,47.2214,2.020238,236.712143498924,1.233685688920021,39.84437686389176,-9999,41180.350385125,-0.04547119140625,-0.22662353515625,-0.9331512451171875,41180.340337125,0.01556436285864115,-0.0519586077466727,0.1997307926518484,0.07534991949796677,0.002988250926136971,-0.0106184184551239,0.01220681518316269,-0.02141134440898895,0.01647108793258667,XArbitraryZVertical,0.0998639748297232,-0.02507056601192201,0.005150962912435815,0.9946717919297514,-0.05090276151895523,-0.1984054893255234,-0.9787973165512085,41161.41030575,unknown,2,2020-03-09 10:28:58.775 +0100,605438957.5151852,0,44261.2,100.371
2020-03-09 10:29:17.731 +0100,1583746157.142264,52.56375625553109,13.41012808994314,47.2214,2.020238,236.712143498924,1.233685688920021,39.84437686389176,-9999,41180.365459125,-0.0489349365234375,-0.2239532470703125,-0.93316650390625,41180.355410125,0.0154202401923546,-0.05197005652420077,0.2003155226154739,0.03210550919175148,0.005533168092370033,-0.01201071962714195,0.005437083542346954,-0.02764369547367096,0.04552930593490601,XArbitraryZVertical,0.1001529819826525,-0.02508045411942118,0.005070930806228068,0.9946429583098199,-0.0509079322218895,-0.1989785581827164,-0.9786807298660278,41161.41030575,unknown,2,2020-03-09 10:28:58.775 +0100,605438957.5151852,0,44261.2,100.371
2020-03-09 10:29:17.746 +0100,1583746157.142264,52.56375625553109,13.41012808994314,47.2214,2.020238,236.712143498924,1.233685688920021,39.84437686389176,-9999,41180.380532125,-0.0347442626953125,-0.21160888671875,-0.9417724609375,41180.370483125,0.0153653325732716,-0.05192133287470903,0.2004844822419155,0.01280868146568537,0.01103903166949749,-0.005231676623225212,0.001466147601604462,-0.02595223486423492,0.04658156633377075,XArbitraryZVertical,0.1002361947337236,-0.02505810760900298,0.005043817211591221,0.994635270581662,-0.0508585013449192,-0.1991441249847412,-0.9786496162414551,41161.41030575,unknown,2,2020-03-09 10:28:58.775 +0100,605438957.5151852,0,44261.2,100.371
2020-03-09 10:29:17.762 +0100,1583746157.142264,52.56375625553109,13.41012808994314,47.2214,2.020238,236.712143498924,1.233685688920021,39.84437686389176,-9999,41180.39560512501,-0.024017333984375,-0.225433349609375,-0.9611968994140625,41180.385556125,0.01553739092047642,-0.05187341453363935,0.2009461550823365,0.06078335642814636,-0.01348078064620495,0.03207648172974586,0.01606291905045509,-0.01201106607913971,0.03678750991821289,XArbitraryZVertical,0.1004678111654558,-0.02502326973598852,0.005125650702897848,0.994612381154247,-0.05080683529376984,-0.1995965391397476,-0.9785600900650024,41161.41030575,unknown,2,2020-03-09 10:28:58.775 +0100,605438957.5151852,0,44261.2,100.371
2020-03-09 10:29:17.777 +0100,1583746157.142264,52.56375625553109,13.41012808994314,47.2214,2.020238,236.712143498924,1.233685688920021,39.84437686389176,-9999,41180.410679125,-0.0254058837890625,-0.2245025634765625,-0.9690093994140625,41180.400630125,0.01664120246305625,-0.05261008644897799,0.2027922997294912,0.195878267288208,-0.06018184125423431,0.09727229177951813,0.0271403081715107,-0.01621431112289429,0.02235734462738037,XArbitraryZVertical,0.1014017047387386,-0.02532408333284173,0.005612642971499458,0.9945072569027475,-0.05150823295116425,-0.2014051973819733,-0.9781527519226074,41161.41030575,unknown,2,2020-03-09 10:28:58.775 +0100,605438957.5151852,0,44261.2,100.371
2020-03-09 10:29:17.792 +0100,1583746157.142264,52.56375625553109,13.41012808994314,47.2214,2.020238,236.712143498924,1.233685688920021,39.84437686389176,-9999,41180.425752125,-0.0313873291015625,-0.2307586669921875,-0.9593505859375,41180.415703125,0.01856082135891378,-0.05390860686835054,0.2062789483467237,0.2370344996452332,-0.08266184478998184,0.1314036250114441,0.02733466774225235,-0.01968201994895935,0.008368372917175293,XArbitraryZVertical,0.1031636743892889,-0.02585154596788065,0.006452936692892498,0.9943073445967394,-0.0527401827275753,-0.2048191577196121,-0.9773778915405273,41161.41030575,unknown,2,2020-03-09 10:28:58.775 +0100,605438957.5151852,0,44261.2,100.371
2020-03-09 10:29:17.807 +0100,1583746157.142264,52.56375625553109,13.41012808994314,47.2214,2.020238,236.712143498924,1.233685688920021,39.84437686389176,-9999,41180.44082512501,-0.04510498046875,-0.2519683837890625,-0.9475860595703125,41180.430776125,0.02105663481353115,-0.05573289257483583,0.2096173331285548,0.2001347690820694,-0.09231775999069214,0.1657868474721909,0.02605797350406647,-0.0176667720079422,0.004301726818084717,XArbitraryZVertical,0.104862216252911,-0.02660741954548589,0.007551523911373025,0.9941019994709759,-0.05448471754789352,-0.2080856263637543,-0.976591944694519,41161.41030575,unknown,2,2020-03-09 10:28:58.775 +0100,605438957.5151852,0,44261.2,100.371
2020-03-09 10:29:17.822 +0100,1583746157.142264,52.56375625553109,13.41012808994314,47.2214,2.020238,236.712143498924,1.233685688920021,39.84437686389176,-9999,41180.455898125,-0.0456085205078125,-0.258453369140625,-0.9213714599609375,41180.445850125,0.02377410309307542,-0.0575735403903946,0.2124702024705803,0.1727973520755768,-0.0836314782500267,0.1612258404493332,0.01114320755004883,-0.04109178483486176,0.02830713987350464,XArbitraryZVertical,0.1063241819210909,-0.02735861111857174,0.008763082240029026,0.9939163578320556,-0.05624779686331749,-0.2108751982450485,-0.9758933782577515,41161.41030575,unknown,2,2020-03-09 10:28:58.775 +0100,605438957.5151852,0,44261.2,100.371
2020-03-09 10:29:17.837 +0100,1583746157.142264,52.56375625553109,13.41012808994314,47.2214,2.020238,236.712143498924,1.233685688920021,39.84437686389176,-9999,41180.470972125,-0.0489959716796875,-0.2772369384765625,-0.9167022705078125,41180.460923125,0.02613109450927232,-0.0592627299791306,0.2150873458187026,0.1827732622623444,-0.08612900227308273,0.1295570433139801,0.01431511342525482,-0.04244044423103333,0.0479506254196167,XArbitraryZVertical,0.1076650654057779,-0.02805159864778075,0.009804202803278724,0.9937429964285723,-0.05786329880356789,-0.2134327590465546,-0.9752426743507385,41161.41030575,unknown,2,2020-03-09 10:28:58.775 +0100,605438957.5151852,0,44261.2,100.371
2020-03-09 10:29:17.852 +0100,1583746157.142264,52.56375625553109,13.41012808994314,47.2214,2.020238,236.712143498924,1.233685688920021,39.84437686389176,-9999,41180.48604512501,-0.059661865234375,-0.2999420166015625,-0.9141845703125,41180.475996125,0.02788524952648616,-0.06074063108519223,0.2178859599478417,0.1861871629953384,-0.08235077559947968,0.07858412712812424,0.01027249544858932,-0.06106945872306824,0.05785363912582397,XArbitraryZVertical,0.1090877622868948,-0.02866749340145634,0.01055186360134071,0.9935626008221615,-0.05926805734634399,-0.2161660492420197,-0.9745560884475708,41161.41030575,unknown,2,2020-03-09 10:28:58.775 +0100,605438957.5151852,0,44261.2,100.371
2020-03-09 10:29:17.867 +0100,1583746157.142264,52.56375625553109,13.41012808994314,47.2214,2.020238,236.712143498924,1.233685688920021,39.84437686389176,-9999,41180.501118125,-0.0552520751953125,-0.3093719482421875,-0.90673828125,41180.491069125,0.02839219229479025,-0.06201875296888933,0.220252659116852,0.1099966391921043,-0.08711603283882141,-0.03204937651753426,0.003093861043453217,-0.07436898350715637,0.05483758449554443,XArbitraryZVertical,0.1102774360476307,-0.02925408416775756,0.01069568185494423,0.9934125153227568,-0.0604817308485508,-0.218476191163063,-0.9739661812782288,41161.41030575,unknown,2,2020-03-09 10:28:58.775 +0100,605438957.5151852,0,44261.2,100.371
2020-03-09 10:29:17.882 +0100,1583746157.142264,52.56375625553109,13.41012808994314,47.2214,2.020238,236.712143498924,1.233685688920021,39.84437686389176,-9999,41180.516192125,-0.05340576171875,-0.2872314453125,-0.952880859375,41180.506143125,0.02702428400944246,-0.06303078982333392,0.2214154441781006,0.02884307876229286,-0.1136237159371376,-0.1367869824171066,0.00619969516992569,-0.08975975215435028,0.06691181659698486,XArbitraryZVertical,0.110839929351947,-0.02982236175576814,0.009941364965432164,0.9933409540466164,-0.06145134568214417,-0.2196107357740402,-0.9736502766609192,41161.41030575,unknown,2,2020-03-09 10:28:58.775 +0100,605438957.5151852,0,44261.2,100.371
2020-03-09 10:29:17.897 +0100,1583746157.142264,52.56375625553109,13.41012808994314,47.2214,2.020238,236.712143498924,1.233685688920021,39.84437686389176,-9999,41180.53126512501,-0.0671234130859375,-0.2812347412109375,-0.9632568359375,41180.521216125,0.02474643363618857,-0.06438513987728245,0.2217138446438265,-0.004823119845241308,-0.1492459177970886,-0.1478617191314697,0.009116277098655701,-0.07610189914703369,0.04358410835266113,XArbitraryZVertical,0.1109600304477152,-0.03061888391416057,0.008730004274972954,0.9933146353023005,-0.06276573240756989,-0.2199018448591232,-0.9735007286071777,41161.41030575,unknown,2,2020-03-09 10:28:58.775 +0100,605438957.5151852,0,44261.2,100.371
2020-03-09 10:29:17.912 +0100,1583746157.142264,52.56375625553109,13.41012808994314,47.2214,2.020238,236.712143498924,1.233685688920021,39.84437686389176,-9999,41180.546338125,-0.1096649169921875,-0.2941131591796875,-0.9717559814453125,41180.536289125,0.02240914547745595,-0.06622765533663411,0.222191846749428,-0.004689695313572884,-0.1706864982843399,-0.1610012352466583,-0.002570599317550659,-0.06086510419845581,0.0100213885307312,XArbitraryZVertical,0.1111684772198393,-0.03166009495240794,0.007458814102610883,0.9932690177120118,-0.06455235183238983,-0.2203681170940399,-0.9732784032821655,41161.41030575,unknown,2,2020-03-09 10:28:58.775 +0100,605438957.5151852,0,44261.2,100.371
2020-03-09 10:29:17.927 +0100,1583746157.142264,52.56375625553109,13.41012808994314,47.2214,2.020238,236.712143498924,1.233685688920021,39.84437686389176,-9999,41180.561411125,-0.1487274169921875,-0.294586181640625,-0.9799041748046875,41180.551363125,0.01959197394383603,-0.06810957928104883,0.2217938648405759,-0.1048740446567535,-0.16144759953022,-0.1963455080986023,-0.02716132998466492,-0.06561733782291412,0.003622710704803467,XArbitraryZVertical,0.1109317814961503,-0.03275396180984261,0.005962085465834871,0.9932701882429105,-0.06638983637094498,-0.2199798971414566,-0.9732426404953003,41161.41030575,unknown,2,2020-03-09 10:28:58.775 +0100,605438957.5151852,0,44261.2,100.371
2020-03-09 10:29:17.943 +0100,1583746157.142264,52.56375625553109,13.41012808994314,47.2214,2.020238,236.712143498924,1.233685688920021,39.84437686389176,-9999,41180.57648512501,-0.1488037109375,-0.258056640625,-0.9621124267578125,41180.566436125,0.01569947578960034,-0.06930050455292071,0.220750238268536,-0.1765058636665344,-0.1137378141283989,-0.2847582101821899,-0.0811622142791748,-0.07562288641929626,-0.006512999534606934,XArbitraryZVertical,0.1103519279517082,-0.03356732152641494,0.003981323732436716,0.9933174980520091,-0.0675647109746933,-0.2189617156982422,-0.9733913540840149,41161.41030575,unknown,2,2020-03-09 10:28:58.775 +0100,605438957.5151852,0,44261.2,100.371
2020-03-09 10:29:17.958 +0100,1583746157.142264,52.56375625553109,13.41012808994314,47.2214,2.020238,236.712143498924,1.233685688920021,39.84437686389176,-9999,41180.591558125,-0.1484222412109375,-0.2410888671875,-0.9418487548828125,41180.581509125,0.01097983965698895,-0.06965566923908334,0.2179310026993635,-0.2888965308666229,-0.06518855690956116,-0.2765214145183563,-0.08583972603082657,-0.04921504855155945,0.01455217599868774,XArbitraryZVertical,0.1088724518306605,-0.03401709546807436,0.00166731802652393,0.9934719905521281,-0.06795310974121094,-0.2162100225687027,-0.9739792346954346,41161.41030575,unknown,2,2020-03-09 10:28:58.775 +0100,605438957.5151852,0,44261.2,100.371
2020-03-09 10:29:17.973 +0100,1583746157.142264,52.56375625553109,13.41012808994314,47.2214,2.020238,236.712143498924,1.233685688920021,39.84437686389176,-9999,41180.606631125,-0.150543212890625,-0.215850830078125,-0.955352783203125,41180.596582125,0.006333163885094334,-0.0692250623155289,0.2146015179279404,-0.3068843185901642,-0.03460321575403214,-0.3079557716846466,-0.08083862066268921,-0.02812924981117249,0.03287220001220703,XArbitraryZVertical,0.1071392607322913,-0.03406750696254226,-0.0005595913026495355,0.9936599085067952,-0.0675831213593483,-0.2129580974578857,-0.9747211933135986,41161.41030575,unknown,2,2020-03-09 10:28:58.775 +0100,605438957.5151852,0,44261.2,100.371
2020-03-09 10:29:17.988 +0100,1583746157.142264,52.56375625553109,13.41012808994314,47.2214,2.020238,236.712143498924,1.233685688920021,39.84437686389176,-9999,41180.62170512501,-0.124267578125,-0.2465972900390625,-0.9237213134765625,41180.611656125,0.0006025594815063235,-0.06847368347554501,0.2115397985425457,-0.2078402936458588,-0.02565765753388405,-0.3683466613292694,-0.0849752202630043,-0.008508220314979553,0.03163081407546997,XArbitraryZVertical,0.1055211926505786,-0.03400707554857014,-0.003314353756856431,0.9938297439375222,-0.0668950155377388,-0.2099656164646149,-0.9754176139831543,41161.41030575,unknown,2,2020-03-09 10:28:58.775 +0100,605438957.5151852,0,44261.2,100.371
2020-03-09 10:29:18.015 +0100,1583746157.142264,52.56375625553109,13.41012808994314,47.2214,2.020238,236.712143498924,1.233685688920021,39.84437686389176,-9999,41180.636778125,-0.1256103515625,-0.27801513671875,-0.941314697265625,41180.626729125,-0.004454614588916117,-0.06781257326530611,0.2086152737042302,-0.3670904040336609,-0.01298447232693434,-0.2573911249637604,-0.05797563493251801,-0.0394904613494873,0.05234861373901367,XArbitraryZVertical,0.1039834025200985,-0.03394722994925427,-0.005743516973446818,0.993982872761724,-0.06629146635532379,-0.2071053981781006,-0.9760700464248657,41161.41030575,unknown,2,2020-03-09 10:28:58.775 +0100,605438957.5151852,0,44261.2,100.371
2020-03-09 10:29:18.029 +0100,1583746157.142264,52.56375625553109,13.41012808994314,47.2214,2.020238,236.712143498924,1.233685688920021,39.84437686389176,-9999,41180.651851125,-0.1358642578125,-0.2815093994140625,-0.9548797607421875,41180.641802125,-0.008643031474414148,-0.0669891246998186,0.2017250063976706,-0.6256476044654846,0.06098329275846481,-0.2450162023305893,-0.05244459956884384,-0.06883449852466583,0.04792886972427368,XArbitraryZVertical,0.1004901846664027,-0.03375268967637583,-0.007669087331678245,0.9943356731928603,-0.06558167189359665,-0.2003596574068069,-0.9775249361991882,41161.41030575,unknown,2,2020-03-09 10:28:58.775 +0100,605438957.5151852,0,44261.2,100.371
2020-03-09 10:29:18.033 +0100,1583746157.142264,52.56375625553109,13.41012808994314,47.2214,2.020238,236.712143498924,1.233685688920021,39.84437686389176,-9999,41180.66692412501,-0.111572265625,-0.2518157958984375,-0.9105682373046875,41180.656876125,-0.0131762496903045,-0.06552706617989043,0.1921103424502143,-0.7939079999923706,0.1308633089065552,-0.2675742506980896,-0.07158824056386948,-0.09057727456092834,0.02461695671081543,XArbitraryZVertical,0.09563916596695242,-0.03323746785791315,-0.009695828224276002,0.9948137179704205,-0.06427557766437531,-0.1909308433532715,-0.9794968366622925,41161.41030575,unknown,2,2020-03-09 10:28:58.775 +0100,605438957.5151852,0,44261.2,100.371
2020-03-09 10:29:18.048 +0100,1583746157.142264,52.56375625553109,13.41012808994314,47.2214,2.020238,236.712143498924,1.233685688920021,39.84437686389176,-9999,41180.681998125,-0.143585205078125,-0.1971588134765625,-0.9450531005859375,41180.671949125,-0.01831132214480194,-0.06284393171603651,0.1795078149360529,-0.943989634513855,0.1171707734465599,-0.2820129692554474,-0.06143612787127495,-0.0879177451133728,0.05027234554290771,XArbitraryZVertical,0.08929897070002429,-0.03210926308925476,-0.01193005720591396,0.9954156610389555,-0.06179344281554222,-0.1785453259944916,-0.9819893836975098,41161.41030575,unknown,2,2020-03-09 10:28:58.775 +0100,605438957.5151852,0,44261.2,100.371
2020-03-09 10:29:18.064 +0100,1583746157.142264,52.56375625553109,13.41012808994314,47.2214,2.020238,236.712143498924,1.233685688920021,39.84437686389176,-9999,41180.697071125,-0.06396484375,-0.078704833984375,-0.9608001708984375,41180.687022125,-0.02226843099348179,-0.06154990732378408,0.1672437598383417,-0.77691251039505,0.2522907257080078,-0.2856220006942749,-0.08293198049068451,-0.03069247305393219,0.0391269326210022,XArbitraryZVertical,0.08313834713303329,-0.03159020033759972,-0.01365972528411995,0.9959433904836286,-0.06065280735492706,-0.1664652079343796,-0.9841801524162292,41161.41030575,unknown,2,2020-03-09 10:28:58.775 +0100,605438957.5151852,0,44261.2,100.371
2020-03-09 10:29:18.078 +0100,1583746157.142264,52.56375625553109,13.41012808994314,47.2214,2.020238,236.712143498924,1.233685688920021,39.84437686389176,-9999,41180.71214412501,-0.05816650390625,-0.1893768310546875,-1.010482788085938,41180.702095125,-0.02840698679715836,-0.05864707479096977,0.1566051071524187,-0.6741174459457397,0.1178920939564705,-0.3569638729095459,-0.06397538632154465,0.07266904413700104,0.08773344755172729,XArbitraryZVertical,0.07776590345873019,-0.03033707015404323,-0.01644661253163028,0.9963742022285951,-0.05789617821574211,-0.1559657603502274,-0.9860642552375793,41161.41030575,unknown,2,2020-03-09 10:28:58.775 +0100,605438957.5151852,0,44261.2,100.371
2020-03-09 10:29:18.093 +0100,1583746157.142264,52.56375625553109,13.41012808994314,47.2214,2.020238,236.712143498924,1.233685688920021,39.84437686389176,-9999,41180.727218125,-0.0760040283203125,-0.185302734375,-1.01043701171875,41180.717169125,-0.0334733657552954,-0.05663732502776887,0.1484772934474918,-0.6267938613891602,0.1451463550329208,-0.2767534554004669,-0.002181917428970337,-0.04144354164600372,-0.02307122945785522,XArbitraryZVertical,0.07365778175055947,-0.02947374426666302,-0.0187829460969932,0.9966709600856571,-0.05598422884941101,-0.1479323506355286,-0.9874116778373718,41161.41030575,unknown,2,2020-03-09 10:28:58.775 +0100,605438957.5151852,0,44261.2,100.371
2020-03-09 10:29:18.108 +0100,1583746157.142264,52.56375625553109,13.41012808994314,47.2214,2.020238,236.712143498924,1.233685688920021,39.84437686389176,-9999,41180.742291125,-0.04266357421875,-0.196746826171875,-0.982391357421875,41180.732242125,-0.0383979967934837,-0.05389111330536762,0.1387190317875366,-0.7918501496315002,0.1659142076969147,-0.3059321045875549,-0.02186262980103493,-0.04808014631271362,-0.0293087363243103,XArbitraryZVertical,0.06875000500303732,-0.02820256485218657,-0.02101157096649455,0.9970137812941675,-0.05334759876132011,-0.1382745653390884,-0.988956093788147,41161.41030575,unknown,2,2020-03-09 10:28:58.775 +0100,605438957.5151852,0,44261.2,100.371
2020-03-09 10:29:18.124 +0100,1583746157.142264,52.56375625553109,13.41012808994314,47.2214,2.020238,236.712143498924,1.233685688920021,39.84437686389176,-9999,41180.75736412501,-0.026702880859375,-0.244140625,-0.995361328125,41180.747315125,-0.04389180713143286,-0.05116243959637466,0.1252137402104177,-1.226685285568237,0.1993514150381088,-0.3171831071376801,0.008076496422290802,-0.0718592181801796,0.008481323719024658,XArbitraryZVertical,0.06197025474132721,-0.02689467971190004,-0.02349394008162802,0.9974388487073045,-0.05073974654078484,-0.1248868033289909,-0.9908727407455444,41161.41030575,unknown,2,2020-03-09 10:28:58.775 +0100,605438957.5151852,0,44261.2,100.371
2020-03-09 10:29:18.139 +0100,1583746157.142264,52.56375625553109,13.41012808994314,47.2214,2.020238,236.712143498924,1.233685688920021,39.84437686389176,-9999,41180.772437125,0.0171356201171875,-0.18963623046875,-1.014968872070312,41180.762389125,-0.04985333030545826,-0.04699041291866962,0.103561655152934,-1.694760203361511,0.2708995342254639,-0.3418131470680237,0.01606684923171997,-0.1236276924610138,0.01400631666183472,XArbitraryZVertical,0.05114257472616111,-0.02474392551299612,-0.02609937614257741,0.9980435690109389,-0.0467214547097683,-0.1033766344189644,-0.993544340133667,41161.41030575,unknown,2,2020-03-09 10:28:58.775 +0100,605438957.5151852,0,44261.2,100.371
2020-03-09 10:29:18.153 +0100,1583746157.142264,52.56375625553109,13.41012808994314,47.2214,2.020238,236.712143498924,1.233685688920021,39.84437686389176,-9999,41180.787511125,0.027008056640625,-0.0889739990234375,-1.029342651367188,41180.777462125,-0.05613245594298814,-0.04210395264036289,0.07638424254505993,-1.908236503601074,0.3018838167190552,-0.2909545004367828,0.05910467356443405,-0.113325722515583,-0.01876842975616455,XArbitraryZVertical,0.03756904642231652,-0.02209805778465344,-0.02883931542666552,0.9986332853777096,-0.04196878150105476,-0.07630998641252518,-0.9962005019187927,41161.41030575,unknown,2,2020-03-09 10:28:58.775 +0100,605438957.5151852,0,44261.2,100.371
2020-03-09 10:29:18.169 +0100,1583746157.142264,52.56375625553109,13.41012808994314,47.2214,2.020238,236.712143498924,1.233685688920021,39.84437686389176,-9999,41180.80258412501,-0.0269317626953125,-0.068756103515625,-1.087722778320312,41180.792535125,-0.06137159108174548,-0.0368538574280984,0.04817730924330688,-1.78860342502594,0.3470275104045868,-0.2628734111785889,0.0684497207403183,-0.06319962441921234,-0.0205000638961792,XArbitraryZVertical,0.02350573893864368,-0.01915073543452955,-0.03111047539903453,0.9990559655609562,-0.03680276498198509,-0.0481586754322052,-0.9981614351272583,41161.41030575,unknown,2,2020-03-09 10:28:58.775 +0100,605438957.5151852,0,44261.2,100.371
2020-03-09 10:29:18.184 +0100,1583746157.142264,52.56375625553109,13.41012808994314,47.2214,2.020238,236.712143498924,1.233685688920021,39.84437686389176,-9999,41180.817657125,-0.067626953125,-0.06939697265625,-1.066452026367188,41180.807608125,-0.06605755996868889,-0.03086760534285139,0.02319243109263604,-1.557586908340454,0.4114785194396973,-0.2273311913013458,0.003922842442989349,-0.04556554928421974,-0.08846795558929443,XArbitraryZVertical,0.01107863837427531,-0.0158066205662466,-0.0331954869939797,0.9992624683339497,-0.03085440397262573,-0.02319035120308399,-0.9992548227310181,41161.41030575,unknown,2,2020-03-09 10:28:58.775 +0100,605438957.5151852,0,44261.2,100.371
2020-03-09 10:29:18.199 +0100,1583746158.14314,52.56374559181037,13.41010178203469,47.44508,2.024436,236.544757099502,1.253114291788581,44.24393249999714,-9999,41180.832731125,-0.0824432373046875,-0.0286102294921875,-0.946441650390625,41180.822682125,-0.06948001115515191,-0.02436498845682354,0.0002184724592145687,-1.532585263252258,0.4558496177196503,-0.1421621590852737,-0.03142338618636131,-0.06811030954122543,-0.08792805671691895,XArbitraryZVertical,-0.0003139622343541895,-0.01217863756358321,-0.03473177437360156,0.9993223036627545,-0.02436257712543011,-0.000218472458072938,-0.9997031688690186,41161.41030575,unknown,2,2020-03-09 10:28:58.775 +0100,605438957.5151852,0,44261.2,100.371
2020-03-09 10:29:18.214 +0100,1583746158.14314,52.56374559181037,13.41010178203469,47.44508,2.024436,236.544757099502,1.253114291788581,44.24393249999714,-9999,41180.84780412501,-0.00152587890625,0.0421142578125,-0.8789825439453125,41180.837755125,-0.07161634548101072,-0.01727589419352588,-0.02266892232528691,-1.467415571212769,0.457594245672226,-0.09507960826158524,-0.06517250835895538,-0.0512772724032402,0.05315220355987549,XArbitraryZVertical,-0.01163575025783568,-0.008225992645266125,-0.03569904763255359,0.9992609220993617,-0.01727059669792652,0.02266698144376278,-0.9995939135551453,41161.41030575,unknown,2,2020-03-09 10:28:58.775 +0100,605438957.5151852,0,44261.2,100.371
2020-03-09 10:29:18.229 +0100,1583746158.14314,52.56374559181037,13.41010178203469,47.44508,2.024436,236.544757099502,1.253114291788581,44.24393249999714,-9999,41180.862877125,0.083404541015625,0.05731201171875,-0.817047119140625,41180.852828125,-0.07289939315427948,-0.01158112597858604,-0.04315452232361167,-1.266473412513733,0.2884178757667542,-0.006024199537932873,-0.02578333579003811,-0.02156538143754005,0.1001372337341309,XArbitraryZVertical,-0.02177186418809088,-0.004999101522758909,-0.03630768517248311,0.9990908510841379,-0.01157008484005928,0.04314113035798073,-0.9990019798278809,41161.41030575,unknown,2,2020-03-09 10:28:58.775 +0100,605438957.5151852,0,44261.2,100.371
2020-03-09 10:29:18.244 +0100,1583746158.14314,52.56374559181037,13.41010178203469,47.44508,2.024436,236.544757099502,1.253114291788581,44.24393249999714,-9999,41180.877950125,0.0744781494140625,-0.0041961669921875,-0.847900390625,41180.867902125,-0.07209819533229447,-0.008452378292618757,-0.06234852947871941,-1.312667727470398,0.1347165554761887,0.1208586767315865,0.0918404683470726,-0.004996407777070999,0.1809741854667664,XArbitraryZVertical,-0.03130092908668786,-0.003098010020516891,-0.03589181521869726,0.9988605862618914,-0.008435854688286781,0.06230814382433891,-0.9980213046073914,41161.41030575,unknown,2,2020-03-09 10:28:58.775 +0100,605438957.5151852,0,44261.2,100.371
2020-03-09 10:29:18.259 +0100,1583746158.14314,52.56374559181037,13.41010178203469,47.44508,2.024436,236.544757099502,1.253114291788581,44.24393249999714,-9999,41180.89302412501,0.0861663818359375,-0.037872314453125,-0.922576904296875,41180.882975125,-0.07060676994359699,-0.006970861318091103,-0.08288441107129621,-1.394038796424866,0.05449177697300911,0.08421254903078079,0.08581962436437607,-0.06637148559093475,0.1669987440109253,XArbitraryZVertical,-0.04152719663450099,-0.002017942323979611,-0.03512122298249465,0.9985177828936196,-0.006946874316781759,0.08278954029083252,-0.9965428113937378,41161.41030575,unknown,2,2020-03-09 10:28:58.775 +0100,605438957.5151852,0,44261.2,100.371
2020-03-09 10:29:18.274 +0100,1583746158.14314,52.56374559181037,13.41010178203469,47.44508,2.024436,236.544757099502,1.253114291788581,44.24393249999714,-9999,41180.908097125,0.0260772705078125,-0.0894317626953125,-1.079391479492188,41180.898048125,-0.06977613778500755,-0.005944644407797228,-0.1035912285287776,-1.337202668190002,0.09661205857992172,0.04148159921169281,0.09207917749881744,-0.1412788331508636,0.0720447301864624,XArbitraryZVertical,-0.05184426199839157,-0.001160658695739108,-0.0346802682092851,0.9980521706763226,-0.005912741646170616,0.103406049311161,-0.9946216344833374,41161.41030575,unknown,2,2020-03-09 10:28:58.775 +0100,605438957.5151852,0,44261.2,100.371
2020-03-09 10:29:18.290 +0100,1583746158.14314,52.56374559181037,13.41010178203469,47.44508,2.024436,236.544757099502,1.253114291788581,44.24393249999714,-9999,41180.923170125,-0.0370941162109375,-0.0114898681640625,-1.08148193359375,41180.91312112501,-0.06971956711945906,-0.003496850762969299,-0.1222334095415953,-1.091584444046021,0.2224698513746262,-0.01876283064484596,0.06130160763859749,-0.2017637938261032,-0.04324918985366821,XArbitraryZVertical,-0.06110228603203623,0.0003846546550621145,-0.03468087202317228,0.9975287567389493,-0.003470752853900194,0.121929258108139,-0.9925327301025391,41161.41030575,unknown,2,2020-03-09 10:28:58.775 +0100,605438957.5151852,0,44261.2,100.371
2020-03-09 10:29:18.304 +0100,1583746158.14314,52.56374559181037,13.41010178203469,47.44508,2.024436,236.544757099502,1.253114291788581,44.24393249999714,-9999,41180.93824412501,-0.0374908447265625,0.0270538330078125,-1.08258056640625,41180.928195125,-0.07015883996834597,0.0002746053785273602,-0.1352728144405475,-0.6273230314254761,0.2826618254184723,-0.02974677458405495,-0.03736618906259537,-0.1463511735200882,-0.09061741828918457,XArbitraryZVertical,-0.0675384713033276,0.002507256227635681,-0.03500131098280145,0.9970992908094625,0.0002720967459026724,0.134860634803772,-0.9908645153045654,41161.41030575,unknown,2,2020-03-09 10:28:58.775 +0100,605438957.5151852,0,44261.2,100.371
2020-03-09 10:29:18.319 +0100,1583746158.14314,52.56374559181037,13.41010178203469,47.44508,2.024436,236.544757099502,1.253114291788581,44.24393249999714,-9999,41180.95331941667,-0.001953125,-0.0509033203125,-1.049072265625,41180.943268125,-0.07073466417645813,0.004678258170106296,-0.1415234700394087,-0.2828391194343567,0.3146956861019135,-0.06434236466884613,-0.04920239001512527,-0.1031341254711151,-0.07952767610549927,XArbitraryZVertical,-0.07057578956146017,0.004831852382256775,-0.03543665407715726,0.9968649875397305,0.004631469026207924,0.1410515159368515,-0.9899914264678955,41161.41030575,unknown,2,2020-03-09 10:28:58.775 +0100,605438957.5151852,0,44261.2,100.371
2020-03-09 10:29:18.335 +0100,1583746158.14314,52.56374559181037,13.41010178203469,47.44508,2.024436,236.544757099502,1.253114291788581,44.24393249999714,-9999,41180.96839241667,0.0002593994140625,-0.09228515625,-0.963653564453125,41180.95834341667,-0.07191228858317775,0.00936163210397171,-0.1473536169747697,-0.5614790320396423,0.320820689201355,-0.08601810038089752,-0.01121319364756346,-0.1977249979972839,-0.05995255708694458,XArbitraryZVertical,-0.07339398184138152,0.007311222875158642,-0.03619481459369296,0.9966191019021033,0.009260045364499092,0.1468209475278854,-0.9891197681427002,41161.41030575,unknown,2,2020-03-09 10:28:58.775 +0100,605438957.5151852,0,44261.2,100.371
2020-03-09 10:29:18.350 +0100,1583746158.14314,52.56374559181037,13.41010178203469,47.44508,2.024436,236.544757099502,1.253114291788581,44.24393249999714,-9999,41180.98346641667,0.022705078125,-0.0338134765625,-0.899932861328125,41180.97341741667,-0.07304026549109909,0.01393563045014365,-0.1597198128209056,-1.086334347724915,0.2974749803543091,-0.08952069282531738,-0.0177709199488163,-0.2467804104089737,-0.008185386657714844,XArbitraryZVertical,-0.07946633259939082,0.009853599528757745,-0.03695025118708088,0.9961036378721052,0.01375781092792749,0.1590415984392166,-0.9871760010719299,41161.41030575,unknown,2,2020-03-09 10:28:58.775 +0100,605438957.5151852,0,44261.2,100.371
2020-03-09 10:29:18.366 +0100,1583746158.14314,52.56374559181037,13.41010178203469,47.44508,2.024436,236.544757099502,1.253114291788581,44.24393249999714,-9999,41180.99853941667,-0.0434417724609375,0.072174072265625,-0.87982177734375,41180.98849041667,-0.07417091013364936,0.01763054077690568,-0.1795638126721873,-1.486485123634338,0.2087388634681702,-0.07391662895679474,0.005358843132853508,-0.2124147415161133,0.08383584022521973,XArbitraryZVertical,-0.08927069121832897,0.0120978568226226,-0.03771602491475635,0.995219414644257,0.01734617352485657,0.1786004155874252,-0.9837687611579895,41161.41030575,unknown,2,2020-03-09 10:28:58.775 +0100,605438957.5151852,0,44261.2,100.371
2020-03-09 10:29:18.380 +0100,1583746158.14314,52.56374559181037,13.41010178203469,47.44508,2.024436,236.544757099502,1.253114291788581,44.24393249999714,-9999,41181.01361241667,0.01715087890625,0.173370361328125,-0.8861083984375,41181.00356341667,-0.07473295715362552,0.02007128834789134,-0.2019464639460278,-1.391895651817322,0.1364990174770355,-0.084646075963974,-0.03502775728702545,-0.160721629858017,0.08890140056610107,XArbitraryZVertical,-0.1003533166488341,0.01374293242719721,-0.03817652183587785,0.994124107905896,0.01966208033263683,0.2005766183137894,-0.9794806838035583,41161.41030575,unknown,2,2020-03-09 10:28:58.775 +0100,605438957.5151852,0,44261.2,100.371
2020-03-09 10:29:18.395 +0100,1583746158.14314,52.56374559181037,13.41010178203469,47.44508,2.024436,236.544757099502,1.253114291788581,44.24393249999714,-9999,41181.02868541667,0.034027099609375,0.236053466796875,-1.051254272460938,41181.01863741667,-0.07575613543894512,0.02186717117763847,-0.2202165434575802,-0.9922245740890503,0.1142349764704704,-0.07912134379148483,-0.004186587408185005,-0.04507164657115936,0.08950835466384888,XArbitraryZVertical,-0.1093890110807761,0.01502038604093104,-0.038837997466101,0.9931263505992964,0.02133738249540329,0.2184409350156784,-0.9756168723106384,41161.41030575,unknown,2,2020-03-09 10:28:58.775 +0100,605438957.5151852,0,44261.2,100.371
2020-03-09 10:29:18.410 +0100,1583746158.14314,52.56374559181037,13.41010178203469,47.44508,2.024436,236.544757099502,1.253114291788581,44.24393249999714,-9999,41181.04375941667,-0.0323333740234375,0.1668853759765625,-1.044479370117188,41181.03371041667,-0.07624978790753657,0.02288297332713232,-0.2310240939480351,-0.4675066769123077,0.04412263631820679,-0.01857048459351063,0.01944435574114323,0.0009742975234985352,-0.03352117538452148,XArbitraryZVertical,-0.11473087206683,0.0157494803661434,-0.03917688258255875,0.9924987690187034,0.02227308414876461,0.2289745360612869,-0.9731775522232056,41161.41030575,unknown,2,2020-03-09 10:28:58.775 +0100,605438957.5151852,0,44261.2,100.371
2020-03-09 10:29:18.425 +0100,1583746158.14314,52.56374559181037,13.41010178203469,47.44508,2.024436,236.544757099502,1.253114291788581,44.24393249999714,-9999,41181.05883241667,-0.027801513671875,0.0066375732421875,-0.969696044921875,41181.04878341667,-0.0764774210147485,0.02371380450769795,-0.2364987571028488,-0.315341055393219,0.06650680303573608,-0.0450061522424221,-0.05538501590490341,-0.0674159973859787,-0.07258856296539307,XArbitraryZVertical,-0.1174293654500711,0.01627497740951139,-0.03935750898954238,0.9921675051063689,0.02305155247449875,0.234300285577774,-0.971890926361084,41161.41030575,unknown,2,2020-03-09 10:28:58.775 +0100,605438957.5151852,0,44261.2,100.371
2020-03-09 10:29:18.440 +0100,1583746158.14314,52.56374559181037,13.41010178203469,47.44508,2.024436,236.544757099502,1.253114291788581,44.24393249999714,-9999,41181.07390541667,0.0066680908203125,-0.0494537353515625,-0.885040283203125,41181.06385641667,-0.07734829595789558,0.02458067902515382,-0.2435458949765719,-0.7018373012542725,0.07807868719100952,-0.0643773227930069,-0.06796612590551376,-0.189266636967659,-0.0318794846534729,XArbitraryZVertical,-0.1209005542785764,0.01688620858233354,-0.03986707527207805,0.9917199355644843,0.02385287545621395,0.2411453872919083,-0.9701958298683167,41161.41030575,unknown,2,2020-03-09 10:28:58.775 +0100,605438957.5151852,0,44261.2,100.371
2020-03-09 10:29:18.455 +0100,1583746158.14314,52.56374559181037,13.41010178203469,47.44508,2.024436,236.544757099502,1.253114291788581,44.24393249999714,-9999,41181.08897941667,0.0305633544921875,0.1294097900390625,-0.8398895263671875,41181.07893041667,-0.07719539961110133,0.02570882974076149,-0.2583331333041311,-1.17711615562439,0.0487532839179039,0.03329890221357346,-0.01818500459194183,-0.3049243092536926,0.08145725727081299,XArbitraryZVertical,-0.1282092487569793,0.01770752389985911,-0.03991797051053532,0.9907852118930774,0.02485300041735172,0.2554693520069122,-0.9664976596832275,41161.41030575,unknown,2,2020-03-09 10:28:58.775 +0100,605438957.5151852,0,44261.2,100.371
2020-03-09 10:29:18.470 +0100,1583746158.14314,52.56374559181037,13.41010178203469,47.44508,2.024436,236.544757099502,1.253114291788581,44.24393249999714,-9999,41181.10405241667,0.0200653076171875,0.4035186767578125,-0.932037353515625,41181.09400341667,-0.07519325880276306,0.02664049087817633,-0.2752503541607415,-0.952789843082428,0.003440707921981812,0.1638794541358948,-0.00469968281686306,-0.2401577532291412,0.1178687810897827,XArbitraryZVertical,-0.1365861023427805,0.0183408364830516,-0.03905513864688808,0.9896880544052005,0.02563463523983955,0.2717878818511963,-0.962015688419342,41161.41030575,unknown,2,2020-03-09 10:28:58.775 +0100,605438957.5151852,0,44261.2,100.371
2020-03-09 10:29:18.485 +0100,1583746158.14314,52.56374559181037,13.41010178203469,47.44508,2.024436,236.544757099502,1.253114291788581,44.24393249999714,-9999,41181.11912541667,0.0135955810546875,0.393524169921875,-0.9893341064453125,41181.10907641667,-0.07230401500885238,0.02653620762464376,-0.2821443271102083,0.1294072866439819,-0.1488311886787415,0.1499939560890198,-0.005418796092271805,0.1251013875007629,0.02808493375778198,XArbitraryZVertical,-0.1400256945317558,0.01820891816465042,-0.03764620902563229,0.9892642786123337,0.02548399195075035,0.2784158289432526,-0.9601224660873413,41161.41030575,unknown,2,2020-03-09 10:28:58.775 +0100,605438957.5151852,0,44261.2,100.371
2020-03-09 10:29:18.510 +0100,1583746158.14314,52.56374559181037,13.41010178203469,47.44508,2.024436,236.544757099502,1.253114291788581,44.24393249999714,-9999,41181.13419941667,0.023590087890625,0.1839447021484375,-1.037368774414062,41181.12415041667,-0.07085640637656157,0.02338042134717615,-0.2708668546196938,1.270273089408875,-0.2986348867416382,0.07838249206542969,-0.01314184255897999,0.1605629324913025,-0.02405941486358643,XArbitraryZVertical,-0.1345155747484927,0.0163578137985194,-0.03667143029961598,0.9900974562351668,0.02252590283751488,0.2675668001174927,-0.9632759690284729,41161.41030575,unknown,2,2020-03-09 10:28:58.775 +0100,605438957.5151852,0,44261.2,100.371
2020-03-09 10:29:18.526 +0100,1583746158.14314,52.56374559181037,13.41010178203469,47.44508,2.024436,236.544757099502,1.253114291788581,44.24393249999714,-9999,41181.14927241667,0.0270843505859375,-0.0636138916015625,-1.064849853515625,41181.13922341667,-0.07087052180266093,0.01931687622476769,-0.2490448323596952,1.468226194381714,-0.2155748903751373,-0.03891457244753838,0.004870260134339333,-0.06253494322299957,-0.06840145587921143,XArbitraryZVertical,-0.1237775899135501,0.01397745402883897,-0.03635070915546083,0.9915453685275546,0.0187197532504797,0.2464783787727356,-0.9689674973487854,41161.41030575,unknown,2,2020-03-09 10:28:58.775 +0100,605438957.5151852,0,44261.2,100.371
2020-03-09 10:29:18.530 +0100,1583746158.14314,52.56374559181037,13.41010178203469,47.44508,2.024436,236.544757099502,1.253114291788581,44.24393249999714,-9999,41181.16434541667,0.032928466796875,-0.1664276123046875,-1.1063232421875,41181.15429641667,-0.07337874514114495,0.01673765960024906,-0.2304231432737773,0.9518340229988098,-0.04310218989849091,-0.2259983867406845,0.01101865246891975,-0.2171449363231659,-0.08581656217575073,XArbitraryZVertical,-0.1145705409421643,0.0125242593409073,-0.03739808577537682,0.992631853609471,0.01629452034831047,0.2283895015716553,-0.9734334945678711,41161.41030575,unknown,2,2020-03-09 10:28:58.775 +0100,605438957.5151852,0,44261.2,100.371
2020-03-09 10:29:18.546 +0100,1583746158.14314,52.56374559181037,13.41010178203469,47.44508,2.024436,236.544757099502,1.253114291788581,44.24393249999714,-9999,41181.17941841667,0.0419158935546875,-0.178985595703125,-1.147903442382812,41181.16937041667,-0.07734269864262613,0.01686791434820652,-0.2220097156828331,0.1567040830850601,0.1789425313472748,-0.240814596414566,0.01647526398301125,-0.3866191506385803,-0.1310052275657654,XArbitraryZVertical,-0.110366210237467,0.01265835963155098,-0.03935597195481697,0.9930308057808009,0.01645314320921898,0.2201904505491257,-0.9753181338310242,41161.41030575,unknown,2,2020-03-09 10:28:58.775 +0100,605438957.5151852,0,44261.2,100.371
2020-03-09 10:29:18.561 +0100,1583746158.14314,52.56374559181037,13.41010178203469,47.44508,2.024436,236.544757099502,1.253114291788581,44.24393249999714,-9999,41181.19449241667,0.0447998046875,-0.0253448486328125,-1.091476440429688,41181.18444341667,-0.08041949114209505,0.02025423605219356,-0.2240613517966612,-0.3436449468135834,0.3455337882041931,-0.1609572619199753,0.01917849667370319,-0.4101806879043579,-0.169743537902832,XArbitraryZVertical,-0.1112958472557757,0.01454919328819597,-0.04107610436655729,0.9928314143293993,0.01974659226834774,0.2221912741661072,-0.97480309009552,41161.41030575,unknown,2,2020-03-09 10:28:58.775 +0100,605438957.5151852,0,44261.2,100.371
2020-03-09 10:29:18.575 +0100,1583746158.14314,52.56374559181037,13.41010178203469,47.44508,2.024436,236.544757099502,1.253114291788581,44.24393249999714,-9999,41181.20956541667,0.03466796875,0.127227783203125,-1.03668212890625,41181.19951641667,-0.08217369814064783,0.02521628966827082,-0.2288116778281486,-0.1809646934270859,0.3361048698425293,-0.07287027686834335,0.02024323120713234,-0.2521663308143616,-0.117849588394165,XArbitraryZVertical,-0.1135365449425474,0.0172034571043461,-0.04224157874151095,0.99248630128724,0.02455646544694901,0.2268203347921371,-0.973626971244812,41161.41030575,unknown,2,2020-03-09 10:28:58.775 +0100,605438957.5151852,0,44261.2,100.371
2020-03-09 10:29:18.590 +0100,1583746158.14314,52.56374559181037,13.41010178203469,47.44508,2.024436,236.544757099502,1.253114291788581,44.24393249999714,-9999,41181.22463841667,0.008392333984375,0.208770751953125,-0.9624786376953125,41181.21458941667,-0.08253885144988364,0.02892666188249195,-0.2265394927438092,0.5366004705429077,0.1554596126079559,0.0197096262127161,0.01090925000607967,-0.1382431983947754,-0.08331608772277832,XArbitraryZVertical,-0.1123267653417675,0.01902068784175974,-0.04262234741216676,0.9925745310986652,0.02818363904953003,0.2246067821979523,-0.9740418195724487,41161.41030575,unknown,2,2020-03-09 10:28:58.775 +0100,605438957.5151852,0,44261.2,100.371
2020-03-09 10:29:18.606 +0100,1583746158.14314,52.56374559181037,13.41010178203469,47.44508,2.024436,236.544757099502,1.253114291788581,44.24393249999714,-9999,41181.23971241667,0.0117645263671875,0.192230224609375,-0.94775390625,41181.22966341667,-0.08229996506166809,0.02972686444211385,-0.2127806464546867,1.25841760635376,-0.06924059987068176,0.06503629684448242,-0.02065995708107948,-0.002408921718597412,0.01453691720962524,XArbitraryZVertical,-0.1054801419696616,0.01913432765315517,-0.04247820047939822,0.9933294604414397,0.02905216999351978,0.2111786454916,-0.9770156145095825,41161.41030575,unknown,2,2020-03-09 10:28:58.775 +0100,605438957.5151852,0,44261.2,100.371
2020-03-09 10:29:18.621 +0100,1583746158.14314,52.56374559181037,13.41010178203469,47.44508,2.024436,236.544757099502,1.253114291788581,44.24393249999714,-9999,41181.25478541667,0.0263519287109375,0.1167449951171875,-0.936767578125,41181.24473641667,-0.08139712133093679,0.02731986606712134,-0.1899276577906924,1.689973711967468,-0.2604540586471558,0.1442977339029312,-0.02069134451448917,0.01323756575584412,0.03424841165542603,XArbitraryZVertical,-0.09418054461759177,0.01744436415670456,-0.04179436453524173,0.9945244140272553,0.02682526037096977,0.1887878477573395,-0.9816514253616333,41161.41030575,unknown,2,2020-03-09 10:28:58.775 +0100,605438957.5151852,0,44261.2,100.371
2020-03-09 10:29:18.636 +0100,1583746158.14314,52.56374559181037,13.41010178203469,47.44508,2.024436,236.544757099502,1.253114291788581,44.24393249999714,-9999,41181.26985841667,0.002227783203125,0.0274505615234375,-0.97711181640625,41181.25980941667,-0.07914832399139063,0.02310539662479969,-0.1640663278088338,1.68665611743927,-0.3270570635795593,0.2416506409645081,0.00355873815715313,-0.04658709466457367,0.04954028129577637,XArbitraryZVertical,-0.08141604790674049,0.01474626926056196,-0.04037403554930478,0.9957529228827112,0.02279309183359146,0.1633312702178955,-0.9863079786300659,41161.41030575,unknown,2,2020-03-09 10:28:58.775 +0100,605438957.5151852,0,44261.2,100.371
2020-03-09 10:29:18.651 +0100,1583746158.14314,52.56374559181037,13.41010178203469,47.44508,2.024436,236.544757099502,1.253114291788581,44.24393249999714,-9999,41181.28493241667,-0.0280609130859375,-0.0411224365234375,-1.027603149414062,41181.27488341667,-0.07514748963574612,0.01886745632682321,-0.1401044730144806,1.449796557426453,-0.3161338567733765,0.3337445855140686,-0.00452139787375927,-0.09217719733715057,0.0241284966468811,XArbitraryZVertical,-0.06958894245707375,0.01203304695953158,-0.03813094357621592,0.9967740345305434,0.01868147403001785,0.1396465599536896,-0.9900251626968384,41161.41030575,unknown,2,2020-03-09 10:28:58.775 +0100,605438957.5151852,0,44261.2,100.371
2020-03-09 10:29:18.666 +0100,1583746158.14314,52.56374559181037,13.41010178203469,47.44508,2.024436,236.544757099502,1.253114291788581,44.24393249999714,-9999,41181.30000541667,-0.070037841796875,-0.119293212890625,-1.074462890625,41181.28995641667,-0.07052272915683638,0.01540023801606791,-0.1219217736761819,0.9126436710357666,-0.1933363080024719,0.3007332682609558,-0.04334628582000732,-0.1627429872751236,-0.0351441502571106,XArbitraryZVertical,-0.06061251059222048,0.009828687139731323,-0.03565635025386527,0.9974758276072829,0.01528531406074762,0.1216199398040771,-0.9924590587615967,41161.41030575,unknown,2,2020-03-09 10:28:58.775 +0100,605438957.5151852,0,44261.2,100.371
2020-03-09 10:29:18.681 +0100,1583746158.14314,52.56374559181037,13.41010178203469,47.44508,2.024436,236.544757099502,1.253114291788581,44.24393249999714,-9999,41181.31507841667,-0.0733489990234375,0.0231475830078125,-1.138580322265625,41181.30502941667,-0.06669621525480533,0.01475856521889394,-0.1110852080830343,0.6038986444473267,0.03899748623371124,0.215530663728714,-0.07565650343894958,-0.2227348834276199,-0.06927543878555298,XArbitraryZVertical,-0.05523601880214307,0.009214635297578603,-0.03369902806914755,0.9978618939144487,0.01466706674546003,0.1108568832278252,-0.9937281608581543,41161.41030575,unknown,2,2020-03-09 10:28:58.775 +0100,605438957.5151852,0,44261.2,100.371
2020-03-09 10:29:18.696 +0100,1583746158.14314,52.56374559181037,13.41010178203469,47.44508,2.024436,236.544757099502,1.253114291788581,44.24393249999714,-9999,41181.33015141667,-0.054656982421875,0.1302032470703125,-1.178756713867188,41181.32010341667,-0.06440195670367067,0.01650962783599338,-0.1001816592638879,0.9308461546897888,0.1338536888360977,0.1054414436221123,-0.08977516740560532,-0.07686707377433777,-0.1437299251556396,XArbitraryZVertical,-0.04977679750797234,0.009852059475446668,-0.03256703786397767,0.9981805470605284,0.01642610318958759,0.1000141650438309,-0.9948503971099854,41161.41030575,unknown,2,2020-03-09 10:28:58.775 +0100,605438957.5151852,0,44261.2,100.371
2020-03-09 10:29:18.711 +0100,1583746158.14314,52.56374559181037,13.41010178203469,47.44508,2.024436,236.544757099502,1.253114291788581,44.24393249999714,-9999,41181.34522541667,-0.02239990234375,0.0797882080078125,-1.082855224609375,41181.33517641667,-0.06378031036426123,0.01858429245892241,-0.08212075945433296,1.401976466178894,0.1349821388721466,0.0364605076611042,-0.08106645196676254,0.02482841908931732,-0.1797353625297546,XArbitraryZVertical,-0.04073018035681905,0.01058823689757809,-0.03223773580406983,0.9985937581694789,0.01852059736847878,0.08202848583459854,-0.9964578747749329,41161.41030575,unknown,2,2020-03-09 10:28:58.775 +0100,605438957.5151852,0,44261.2,100.371
2020-03-09 10:29:18.728 +0100,1583746158.14314,52.56374559181037,13.41010178203469,47.44508,2.024436,236.544757099502,1.253114291788581,44.24393249999714,-9999,41181.36029841667,-0.0122222900390625,-0.024566650390625,-0.990966796875,41181.35024941667,-0.0636217670746288,0.02099984985401196,-0.06031482329212497,1.411725163459778,0.1881841123104095,0.03962667286396027,-0.04336011409759521,0.01950968056917191,-0.08489370346069336,XArbitraryZVertical,-0.02980212955346254,0.01144862327994578,-0.03210574404125309,0.998974369242516,0.0209601242095232,0.06027825921773911,-0.9979615211486816,41161.41030575,unknown,2,2020-03-09 10:28:58.775 +0100,605438957.5151852,0,44261.2,100.371
2020-03-09 10:29:18.741 +0100,1583746158.14314,52.56374559181037,13.41010178203469,47.44508,2.024436,236.544757099502,1.253114291788581,44.24393249999714,-9999,41181.37537141667,-0.0020599365234375,-0.0604248046875,-0.9482421875,41181.36532241667,-0.06332570991241385,0.02420313782879383,-0.04131837142632455,1.093118667602539,0.2318252474069595,0.06324382126331329,-0.03821830824017525,-0.03390625864267349,-0.01591664552688599,XArbitraryZVertical,-0.02026283591943583,0.01274655277158171,-0.03189835246795022,0.9992043566093733,0.02418011985719204,0.04130661487579346,-0.998853862285614,41161.41030575,unknown,2,2020-03-09 10:28:58.775 +0100,605438957.5151852,0,44261.2,100.371
2020-03-09 10:29:18.757 +0100,1583746158.14314,52.56374559181037,13.41010178203469,47.44508,2.024436,236.544757099502,1.253114291788581,44.24393249999714,-9999,41181.39044541667,-0.0130615234375,-0.0401153564453125,-0.9160614013671875,41181.38039641667,-0.06222078640309048,0.02790252772546255,-0.02712969617932465,0.8101336359977722,0.2625080347061157,0.1369675695896149,-0.02994870021939278,-0.08755125105381012,0.05100071430206299,XArbitraryZVertical,-0.01312264488191544,0.01436466492869852,-0.03128863281735643,0.9993209098890689,0.02788864076137543,0.02712636813521385,-0.999242901802063,41161.41030575,unknown,2,2020-03-09 10:28:58.775 +0100,605438957.5151852,0,44261.2,100.371
2020-03-09 10:29:18.772 +0100,1583746158.14314,52.56374559181037,13.41010178203469,47.44508,2.024436,236.544757099502,1.253114291788581,44.24393249999714,-9999,41181.40551841667,-0.025482177734375,-0.06292724609375,-0.9458770751953125,41181.39546941667,-0.06048340568342969,0.03195589075576212,-0.01538566037474109,0.7901749014854431,0.2638814747333527,0.1223221942782402,-0.0384012758731842,-0.06145134568214417,0.08218061923980713,XArbitraryZVertical,-0.007205163587888109,0.01620206435213252,-0.03035519228552414,0.9993818763958979,0.03194667026400566,0.01538505312055349,-0.9993711709976196,41161.41030575,unknown,2,2020-03-09 10:28:58.775 +0100,605438957.5151852,0,44261.2,100.371
2020-03-09 10:29:18.787 +0100,1583746158.14314,52.56374559181037,13.41010178203469,47.44508,2.024436,236.544757099502,1.253114291788581,44.24393249999714,-9999,41181.42059141667,-0.0074310302734375,-0.1235198974609375,-0.9691009521484375,41181.41054241667,-0.05977642845153543,0.0356524227617151,-0.002540093949022554,0.8993710875511169,0.2269008010625839,0.02462169528007507,-0.06112708896398544,-0.06546728312969208,0.05348420143127441,XArbitraryZVertical,-0.000736592054827681,0.01785523909980651,-0.02990162050034497,0.9993931110733933,0.03564475476741791,0.002540091285482049,-0.9993612766265869,41161.41030575,unknown,2,2020-03-09 10:28:58.775 +0100,605438957.5151852,0,44261.2,100.371
2020-03-09 10:29:18.802 +0100,1583746158.14314,52.56374559181037,13.41010178203469,47.44508,2.024436,236.544757099502,1.253114291788581,44.24393249999714,-9999,41181.43566541667,-0.0030364990234375,-0.111846923828125,-0.9707794189453125,41181.42561641667,-0.06119185738350538,0.03927913964318017,0.01060583237111291,0.8198205828666687,0.2792085707187653,-0.1631825566291809,-0.05139775201678276,-0.09371858090162277,0.03393197059631348,XArbitraryZVertical,0.005900137568110184,0.01946665049488688,-0.03048073566370571,0.9993283259565969,0.03926683217287064,-0.01060563325881958,-0.9991724491119385,41161.41030575,unknown,2,2020-03-09 10:28:58.775 +0100,605438957.5151852,0,44261.2,100.371
2020-03-09 10:29:18.817 +0100,1583746158.14314,52.56374559181037,13.41010178203469,47.44508,2.024436,236.544757099502,1.253114291788581,44.24393249999714,-9999,41181.45073841667,0.026763916015625,-0.0620574951171875,-1.000457763671875,41181.44068941667,-0.06588528485866642,0.04447862521588993,0.02194725527187228,0.7378133535385132,0.3985394835472107,-0.3960317969322205,-0.0474899634718895,-0.08990123867988586,0.02799099683761597,XArbitraryZVertical,0.01169712713586371,0.02186273908847391,-0.03268267053827683,0.9991581055405073,0.04445325210690498,-0.02194549329578876,-0.9987704157829285,41161.41030575,unknown,2,2020-03-09 10:28:58.775 +0100,605438957.5151852,0,44261.2,100.371
2020-03-09 10:29:18.832 +0100,1583746158.14314,52.56374559181037,13.41010178203469,47.44508,2.024436,236.544757099502,1.253114291788581,44.24393249999714,-9999,41181.46581141667,0.051177978515625,-0.04937744140625,-0.9988861083984375,41181.45576241667,-0.07419612978753259,0.05074500872090562,0.03336270876231882,0.8428894877433777,0.4031305611133575,-0.6248017549514771,-0.03723700344562531,-0.03596391156315804,0.006991803646087646,XArbitraryZVertical,0.01760456233398926,0.02473032392862516,-0.03664956966831077,0.9988669620251353,0.05069500580430031,-0.03335652127861977,-0.9981569647789001,41161.41030575,unknown,2,2020-03-09 10:28:58.775 +0100,605438957.5151852,0,44261.2,100.371
2020-03-09 10:29:18.847 +0100,1583746158.14314,52.56374559181037,13.41010178203469,47.44508,2.024436,236.544757099502,1.253114291788581,44.24393249999714,-9999,41181.48088441667,0.0332489013671875,-0.1005706787109375,-0.9898223876953125,41181.47083641667,-0.08573198188838624,0.056378342599499,0.04528749561283635,0.7700287103652954,0.3018225431442261,-0.8146337270736694,-0.005113005638122559,-0.004105109721422195,-0.001498639583587646,XArbitraryZVertical,0.02381954498120585,0.02718244779658568,-0.04218727661744855,0.9984557570992011,0.05629070475697517,-0.04527201503515244,-0.9973874688148499,41161.41030575,unknown,2,2020-03-09 10:28:58.775 +0100,605438957.5151852,0,44261.2,100.371
2020-03-09 10:29:18.862 +0100,1583746158.14314,52.56374559181037,13.41010178203469,47.44508,2.024436,236.544757099502,1.253114291788581,44.24393249999714,-9999,41181.49595841667,-0.0225982666015625,-0.138397216796875,-0.9815216064453125,41181.48590941667,-0.09958833892317266,0.06138579024701549,0.05408190005764806,0.475797176361084,0.2873870730400085,-0.943958580493927,-0.01548149064183235,-0.02298572286963463,-0.0007488727569580078,XArbitraryZVertical,0.02851832209352944,0.0292937075262365,-0.04890326059278181,0.9979664259430897,0.06125755235552788,-0.05405554175376892,-0.9966571927070618,41161.41030575,unknown,2,2020-03-09 10:28:58.775 +0100,605438957.5151852,0,44261.2,100.371
2020-03-09 10:29:18.877 +0100,1583746158.14314,52.56374559181037,13.41010178203469,47.44508,2.024436,236.544757099502,1.253114291788581,44.24393249999714,-9999,41181.51103141667,-0.067138671875,-0.11505126953125,-0.986572265625,41181.50098241667,-0.1150255429469717,0.06701431052267931,0.05754014614118238,0.121372252702713,0.3523929715156555,-1.069929003715515,-0.08945194631814957,-0.08088843524456024,0.01458251476287842,XArbitraryZVertical,0.03062729342269828,0.03177907717013136,-0.05646293723865092,0.9974286549665654,0.06685333698987961,-0.05750840157270432,-0.9961041212081909,41161.41030575,unknown,2,2020-03-09 10:28:58.775 +0100,605438957.5151852,0,44261.2,100.371
2020-03-09 10:29:18.892 +0100,1583746158.14314,52.56374559181037,13.41010178203469,47.44508,2.024436,236.544757099502,1.253114291788581,44.24393249999714,-9999,41181.52610441667,-0.0032958984375,-0.0924072265625,-0.96612548828125,41181.51605541667,-0.1318560365230064,0.07323007829165554,0.05609168669548716,-0.1538685113191605,0.3455227911472321,-1.16171407699585,-0.1310180872678757,-0.06934933364391327,0.01175779104232788,XArbitraryZVertical,0.03037321554595138,0.03466678157293496,-0.06478592119756657,0.9968341457852539,0.07304957509040833,-0.05606227740645409,-0.9957513809204102,41161.41030575,unknown,2,2020-03-09 10:28:58.775 +0100,605438957.5151852,0,44261.2,100.371
2020-03-09 10:29:18.907 +0100,1583746158.14314,52.56374559181037,13.41010178203469,47.44508,2.024436,236.544757099502,1.253114291788581,44.24393249999714,-9999,41181.54117841667,0.1135711669921875,-0.0499267578125,-0.972930908203125,41181.53112941667,-0.1497050234816839,0.07895365971980754,0.0515932891995699,-0.2405665367841721,0.3101471960544586,-1.245642066001892,-0.0820629894733429,-0.04083648324012756,0.02943277359008789,XArbitraryZVertical,0.02865195142893734,0.03741554792141468,-0.07368436824707111,0.9961674918818401,0.07876670360565186,-0.05157040432095528,-0.9955582618713379,41161.41030575,unknown,2,2020-03-09 10:28:58.775 +0100,605438957.5151852,0,44261.2,100.371
2020-03-09 10:29:18.922 +0100,1583746158.14314,52.56374559181037,13.41010178203469,47.44508,2.024436,236.544757099502,1.253114291788581,44.24393249999714,-9999,41181.55625141667,0.1487579345703125,-0.05975341796875,-0.9676361083984375,41181.54620241667,-0.1689224341176905,0.08384739354071855,0.0471172768195943,-0.1227543652057648,0.2040706872940063,-1.337702035903931,-0.004021026194095612,-0.01530828699469566,0.0267682671546936,XArbitraryZVertical,0.02698656676769425,0.03976493287792986,-0.08327956179655308,0.995366655898562,0.08365623652935028,-0.04709984362125397,-0.9953809380531311,41161.41030575,unknown,2,2020-03-09 10:28:58.775 +0100,605438957.5151852,0,44261.2,100.371
2020-03-09 10:29:18.937 +0100,1583746158.14314,52.56374559181037,13.41010178203469,47.44508,2.024436,236.544757099502,1.253114291788581,44.24393249999714,-9999,41181.57132441667,0.1305084228515625,-0.179351806640625,-0.9334259033203125,41181.56127541667,-0.1894581566247238,0.08697736923396265,0.04359691411945073,-0.1721964776515961,0.1038617938756943,-1.418935894966125,0.06197234243154526,-0.01617003604769707,0.02763712406158447,XArbitraryZVertical,0.02578970161843473,0.04121002998641959,-0.09353222079343489,0.9944286430325169,0.0867852047085762,-0.04358310624957085,-0.995273232460022,41161.41030575,unknown,2,2020-03-09 10:28:58.775 +0100,605438957.5151852,0,44261.2,100.371
2020-03-09 10:29:18.953 +0100,1583746158.14314,52.56374559181037,13.41010178203469,47.44508,2.024436,236.544757099502,1.253114291788581,44.24393249999714,-9999,41181.58639841667,0.1161956787109375,-0.2389373779296875,-0.939788818359375,41181.57634941667,-0.2111610173841943,0.08932890923180441,0.03681135772448773,-0.4922140538692474,0.1004641279578209,-1.533213496208191,0.05052879452705383,-0.09385770559310913,0.05138355493545532,XArbitraryZVertical,0.02298848340791666,0.0424558320203501,-0.1044443596504143,0.9933580253353854,0.08914972096681595,-0.03680304437875748,-0.9953380823135376,41161.41030575,unknown,2,2020-03-09 10:28:58.775 +0100,605438957.5151852,0,44261.2,100.371
2020-03-09 10:29:18.968 +0100,1583746158.14314,52.56374559181037,13.41010178203469,47.44508,2.024436,236.544757099502,1.253114291788581,44.24393249999714,-9999,41181.60147141667,0.1177825927734375,-0.1452484130859375,-0.97210693359375,41181.59142241667,-0.2339940339037436,0.09156247430892318,0.02428779024990071,-0.8702002763748169,0.1117102354764938,-1.625054597854614,0.02478759735822678,-0.2146517783403397,0.05572855472564697,XArbitraryZVertical,0.01738973953577244,0.04403298942011667,-0.1160474284075842,0.9921147105887254,0.09140761941671371,-0.02428540214896202,-0.995517373085022,41161.41030575,unknown,2,2020-03-09 10:28:58.775 +0100,605438957.5151852,0,44261.2,100.371
2020-03-09 10:29:18.983 +0100,1583746158.14314,52.56374559181037,13.41010178203469,47.44508,2.024436,236.544757099502,1.253114291788581,44.24393249999714,-9999,41181.61654441667,0.14459228515625,0.0158233642578125,-1.041656494140625,41181.60649541667,-0.2574245535822242,0.09401072962609147,0.007737796931278895,-0.9653048515319824,0.1671479493379593,-1.675690293312073,0.02246303111314774,-0.1803267449140549,0.03792810440063477,XArbitraryZVertical,0.009863859140614278,0.04610297715151425,-0.1280341684620983,0.9906483925064939,0.09386949986219406,-0.007737719919532537,-0.9955544471740723,41161.41030575,unknown,2,2020-03-09 10:28:58.775 +0100,605438957.5151852,0,44261.2,100.371
2020-03-09 10:29:18.998 +0100,1583746158.14314,52.56374559181037,13.41010178203469,47.44508,2.024436,236.544757099502,1.253114291788581,44.24393249999714,-9999,41181.63161741667,0.197357177734375,0.165740966796875,-1.076980590820312,41181.62156941667,-0.2817838129913707,0.09689774765474413,-0.006370814694978572,-0.5248872041702271,0.1938080489635468,-1.719157814979553,0.04784756898880005,0.009452635422348976,-0.04636764526367188,XArbitraryZVertical,0.003650659942703228,0.04839658313239213,-0.1404134900770429,0.9889026648297644,0.09674422442913055,0.006370771676301956,-0.9952889084815979,41161.41030575,unknown,2,2020-03-09 10:28:58.775 +0100,605438957.5151852,0,44261.2,100.371
2020-03-09 10:29:19.032 +0100,1583746158.14314,52.56374559181037,13.41010178203469,47.44508,2.024436,236.544757099502,1.253114291788581,44.24393249999714,-9999,41181.64669141667,0.1964874267578125,0.13214111328125,-1.051971435546875,41181.63664241667,-0.3072407165347949,0.09919295013291135,-0.01224509966505749,0.04056444764137268,0.1516108214855194,-1.708321928977966,0.08272399008274078,0.1184467449784279,-0.07925474643707275,XArbitraryZVertical,0.001542873346341388,0.04992709347640647,-0.1531257884219799,0.9869434371681364,0.09902293980121613,0.01224479358643293,-0.9950098395347595,41161.41030575,unknown,2,2020-03-09 10:28:58.775 +0100,605438957.5151852,0,44261.2,100.371
2020-03-09 10:29:19.035 +0100,1583746158.14314,52.56374559181037,13.41010178203469,47.44508,2.024436,236.544757099502,1.253114291788581,44.24393249999714,-9999,41181.66176441667,0.1710662841796875,0.0103302001953125,-1.000701904296875,41181.65171541667,-0.3327170857234236,0.1015196649888238,-0.01224768133086302,0.234792947769165,0.2162039428949356,-1.652968525886536,0.09514914453029633,0.1198937520384789,-0.05719476938247681,XArbitraryZVertical,0.002370188225760194,0.05104937185530669,-0.1656823008592143,0.9848541969313674,0.1013377755880356,0.01224737521260977,-0.9947766661643982,41161.41030575,unknown,2,2020-03-09 10:28:58.775 +0100,605438957.5151852,0,44261.2,100.371
2020-03-09 10:29:19.043 +0100,1583746158.14314,52.56374559181037,13.41010178203469,47.44508,2.024436,236.544757099502,1.253114291788581,44.24393249999714,-9999,41181.67683741667,0.161163330078125,-0.03338623046875,-0.9360504150390625,41181.66678941667,-0.3574031688624357,0.105192687859835,-0.01219033433487243,0.0644213855266571,0.3095350563526154,-1.605520129203796,0.07317008823156357,0.03381522744894028,-0.02810829877853394,XArbitraryZVertical,0.00335484984782001,0.05281586697122785,-0.177818216350948,0.9826392244437047,0.1049909889698029,0.01219003275036812,-0.9943984746932983,41161.41030575,unknown,2,2020-03-09 10:28:58.775 +0100,605438957.5151852,0,44261.2,100.371
2020-03-09 10:29:19.058 +0100,1583746158.14314,52.56374559181037,13.41010178203469,47.44508,2.024436,236.544757099502,1.253114291788581,44.24393249999714,-9999,41181.69191141667,0.172637939453125,-0.0352325439453125,-0.8896484375,41181.68186241667,-0.3807274224925279,0.1102356223481724,-0.01675868064193265,-0.3547692000865936,0.4090358316898346,-1.534217476844788,0.05116572976112366,-0.05014413595199585,0.05774021148681641,XArbitraryZVertical,0.00220814945699756,0.05567591803819563,-0.1893753538309484,0.9803224925210278,0.1099970489740372,0.0167578961700201,-0.9937906265258789,41161.41030575,unknown,2,2020-03-09 10:28:58.775 +0100,605438957.5151852,0,44261.2,100.371
2020-03-09 10:29:19.073 +0100,1583746158.14314,52.56374559181037,13.41010178203469,47.44508,2.024436,236.544757099502,1.253114291788581,44.24393249999714,-9999,41181.70698441667,0.2195281982421875,0.075164794921875,-0.9062957763671875,41181.69693541667,-0.4023837208470971,0.1167690950966001,-0.02712342572744884,-0.6212964653968811,0.5105448961257935,-1.490587949752808,0.04963026195764542,-0.07033305615186691,0.09086263179779053,XArbitraryZVertical,-0.001605402569194139,0.05987456056899813,-0.2002538030274913,0.9779114903319529,0.1164610683917999,0.02712010033428669,-0.992824912071228,41161.41030575,unknown,2,2020-03-09 10:28:58.775 +0100,605438957.5151852,0,44261.2,100.371
2020-03-09 10:29:19.088 +0100,1583746158.14314,52.56374559181037,13.41010178203469,47.44508,2.024436,236.544757099502,1.253114291788581,44.24393249999714,-9999,41181.72205741667,0.2689056396484375,0.1716156005859375,-0.9312896728515625,41181.71200841667,-0.4238157851255113,0.1239281363292957,-0.03813679708875722,-0.4324327707290649,0.5139086246490479,-1.504616856575012,0.09600623697042465,0.03703711181879044,0.08531337976455688,XArbitraryZVertical,-0.005583041612733945,0.06453089397987354,-0.2110380236639216,0.9753293453686329,0.1235212832689285,0.03812755271792412,-0.9916092157363892,41161.41030575,unknown,2,2020-03-09 10:28:58.775 +0100,605438957.5151852,0,44261.2,100.371
2020-03-09 10:29:19.103 +0100,1583746158.14314,52.56374559181037,13.41010178203469,47.44508,2.024436,236.544757099502,1.253114291788581,44.24393249999714,-9999,41181.73713141667,0.2865753173828125,0.178466796875,-0.9670562744140625,41181.72708241667,-0.4455169229154535,0.1304210181702194,-0.04445643335315357,-0.03040478006005287,0.4694012999534607,-1.445711851119995,0.1254473179578781,0.1057503148913383,0.07184165716171265,XArbitraryZVertical,-0.007238545417680411,0.06843834337547727,-0.2218093383597999,0.9726583797277824,0.1299231052398682,0.04444178938865662,-0.9905275702476501,41161.41030575,unknown,2,2020-03-09 10:28:58.775 +0100,605438957.5151852,0,44261.2,100.371
2020-03-09 10:29:19.118 +0100,1583746158.14314,52.56374559181037,13.41010178203469,47.44508,2.024436,236.544757099502,1.253114291788581,44.24393249999714,-9999,41181.75220441667,0.288055419921875,0.1400146484375,-0.97412109375,41181.74215541667,-0.4669699698652013,0.1361991763695245,-0.04501422326487295,0.3262686431407928,0.4252465963363647,-1.383752107620239,0.1509336978197098,0.1334676295518875,0.02267932891845703,XArbitraryZVertical,-0.006103812040386521,0.07137875606277695,-0.2322644494876489,0.9700108601754054,0.1356409341096878,0.04499902203679085,-0.9897356629371643,41161.41030575,unknown,2,2020-03-09 10:28:58.775 +0100,605438957.5151852,0,44261.2,100.371
2020-03-09 10:29:19.133 +0100,1583746158.14314,52.56374559181037,13.41010178203469,47.44508,2.024436,236.544757099502,1.253114291788581,44.24393249999714,-9999,41181.76727741667,0.25555419921875,0.09246826171875,-0.9532928466796875,41181.75722841667,-0.4879615601924069,0.1415288657770215,-0.04123002074688277,0.518304705619812,0.4087289571762085,-1.293144345283508,0.1502915322780609,0.1102707833051682,0.01313167810440063,XArbitraryZVertical,-0.002876505543463407,0.07356390799894552,-0.2423259768652046,0.9673975362515811,0.1409369856119156,0.0412183403968811,-0.9891601800918579,41161.41030575,unknown,2,2020-03-09 10:28:58.775 +0100,605438957.5151852,0,44261.2,100.371
2020-03-09 10:29:19.148 +0100,1583746158.14314,52.56374559181037,13.41010178203469,47.44508,2.024436,236.544757099502,1.253114291788581,44.24393249999714,-9999,41181.78235141667,0.2397308349609375,0.078369140625,-0.928314208984375,41181.77230241667,-0.5075648286235406,0.1471075260560498,-0.03609391667884247,0.5122420787811279,0.440954864025116,-1.192360281944275,0.1090713888406754,0.05638207122683525,0.03526198863983154,XArbitraryZVertical,0.001026546491243833,0.07564055819813671,-0.2516310880655887,0.9648621699367101,0.1464820504188538,0.0360860787332058,-0.9885548949241638,41161.41030575,unknown,2,2020-03-09 10:28:58.775 +0100,605438957.5151852,0,44261.2,100.371
2020-03-09 10:29:19.164 +0100,1583746158.14314,52.56374559181037,13.41010178203469,47.44508,2.024436,236.544757099502,1.253114291788581,44.24393249999714,-9999,41181.79742441667,0.2425384521484375,0.091339111328125,-0.880767822265625,41181.78737541667,-0.5261456125833496,0.1535707485607748,-0.03155690398666405,0.444182962179184,0.4974940717220306,-1.154012560844421,0.08836427330970764,0.04137000814080238,0.05152082443237305,XArbitraryZVertical,0.00475577357682729,0.0781524641283407,-0.2604190267126607,0.9623156450476338,0.1528916656970978,0.03155166655778885,-0.9877391457557678,41161.41030575,unknown,2,2020-03-09 10:28:58.775 +0100,605438957.5151852,0,44261.2,100.371
2020-03-09 10:29:19.179 +0100,1583746158.14314,52.56374559181037,13.41010178203469,47.44508,2.024436,236.544757099502,1.253114291788581,44.24393249999714,-9999,41181.81249741667,0.26171875,0.072296142578125,-0.877166748046875,41181.80244841667,-0.5438179537622035,0.1610425427569465,-0.02874616109119185,0.2773668169975281,0.5752450823783875,-1.105358481407166,0.08225655555725098,0.06259684264659882,0.1058849692344666,XArbitraryZVertical,0.007800386996500496,0.08131867296631257,-0.2687864928914706,0.9597292803550814,0.1602811068296432,0.02874220162630081,-0.9866528511047363,41161.41030575,unknown,2,2020-03-09 10:28:58.775 +0100,605438957.5151852,0,44261.2,100.371
2020-03-09 10:29:19.193 +0100,1583746158.14314,52.56374559181037,13.41010178203469,47.44508,2.024436,236.544757099502,1.253114291788581,44.24393249999714,-9999,41181.82757041667,0.29388427734375,0.11236572265625,-0.916290283203125,41181.81752241667,-0.5604274881792106,0.1700754039842987,-0.02887097378829676,0.07012232393026352,0.6868731379508972,-1.067859292030334,0.08325444161891937,0.04695389792323112,0.1161273717880249,XArbitraryZVertical,0.009665491100887533,0.08559168509803133,-0.2767111993793135,0.9570849712148389,0.1691861301660538,0.02886696346104145,-0.985161304473877,41161.41030575,unknown,2,2020-03-09 10:28:58.775 +0100,605438957.5151852,0,44261.2,100.371
2020-03-09 10:29:19.209 +0100,1583746158.14314,52.56374559181037,13.41010178203469,47.44508,2.024436,236.544757099502,1.253114291788581,44.24393249999714,-9999,41181.84264441667,0.294677734375,0.142303466796875,-0.9632415771484375,41181.83259541667,-0.575714409924432,0.1805734423222113,-0.03151459655757311,-0.0364718958735466,0.7622107267379761,-0.9803702235221863,0.1143788397312164,0.08085626363754272,0.06696200370788574,XArbitraryZVertical,0.01054746324857055,0.09089858450189417,-0.2840690441362657,0.9544270168124973,0.1795045435428619,0.03150938078761101,-0.9832524061203003,41161.41030575,unknown,2,2020-03-09 10:28:58.775 +0100,605438957.5151852,0,44261.2,100.371
2020-03-09 10:29:19.224 +0100,1583746158.14314,52.56374559181037,13.41010178203469,47.44508,2.024436,236.544757099502,1.253114291788581,44.24393249999714,-9999,41181.85771741667,0.2793731689453125,0.1276397705078125,-0.960968017578125,41181.84766841667,-0.5894278430676646,0.1918390208014371,-0.03440004301824318,0.01248206291347742,0.7916644811630249,-0.8820950984954834,0.1065360307693481,0.1048583686351776,0.03223711252212524,XArbitraryZVertical,0.01143256326477339,0.09660254297253683,-0.2906643324274156,0.9518673995878668,0.1905516982078552,0.03439325839281082,-0.9810745120048523,41161.41030575,unknown,2,2020-03-09 10:28:58.775 +0100,605438957.5151852,0,44261.2,100.371
2020-03-09 10:29:19.239 +0100,1583746158.14314,52.56374559181037,13.41010178203469,47.44508,2.024436,236.544757099502,1.253114291788581,44.24393249999714,-9999,41181.87279041667,0.2988739013671875,0.121978759765625,-0.939605712890625,41181.86274241667,-0.6020504516524579,0.203529634041916,-0.03669636699733667,-0.0178430862724781,0.8213528394699097,-0.8214008212089539,0.07738092541694641,0.09095154702663422,0.01773178577423096,XArbitraryZVertical,0.01268461112653011,0.1024165489185834,-0.2966959483034182,0.9493794664020739,0.2019912898540497,0.03668813034892082,-0.9786999225616455,41161.41030575,unknown,2,2020-03-09 10:28:58.775 +0100,605438957.5151852,0,44261.2,100.371
2020-03-09 10:29:19.254 +0100,1583746158.14314,52.56374559181037,13.41010178203469,47.44508,2.024436,236.544757099502,1.253114291788581,44.24393249999714,-9999,41181.88786441667,0.32550048828125,0.2025299072265625,-0.9372711181640625,41181.87781541667,-0.6132009270928171,0.2159852123094882,-0.04018823317756208,-0.08109226822853088,0.879849374294281,-0.6992824673652649,0.07626749575138092,0.07966501265764236,0.03632545471191406,XArbitraryZVertical,0.01348022853179852,0.1087646936489284,-0.302065209513283,0.946966284771209,0.2141368091106415,0.04017741605639458,-0.9759770631790161,41161.41030575,unknown,2,2020-03-09 10:28:58.775 +0100,605438957.5151852,0,44261.2,100.371
2020-03-09 10:29:19.269 +0100,1583746158.14314,52.56374559181037,13.41010178203469,47.44508,2.024436,236.544757099502,1.253114291788581,44.24393249999714,-9999,41181.90293741667,0.3121490478515625,0.237518310546875,-0.966552734375,41181.89288841667,-0.6226938886465078,0.2286290649707814,-0.04119416705542478,0.2935087382793427,0.8292531967163086,-0.5733771920204163,0.09904927015304565,0.161347284913063,0.03588050603866577,XArbitraryZVertical,0.01545814002799121,0.114826723514564,-0.3065134251268787,0.944788549886969,0.2264502048492432,0.04118251800537109,-0.9731517434120178,41161.41030575,unknown,2,2020-03-09 10:28:58.775 +0100,605438957.5151852,0,44261.2,100.371
2020-03-09 10:29:19.284 +0100,1583746158.14314,52.56374559181037,13.41010178203469,47.44508,2.024436,236.544757099502,1.253114291788581,44.24393249999714,-9999,41181.91801041667,0.2622528076171875,0.144134521484375,-1.014251708984375,41181.90796141667,-0.6330056947707429,0.2400834687926075,-0.03391765040614214,0.9808441996574402,0.7507055997848511,-0.5343763828277588,0.08330529928207397,0.2139067649841309,0.01769536733627319,XArbitraryZVertical,0.02126763843935043,0.1190291927252102,-0.3108906754148445,0.9427230192669455,0.2376469373703003,0.03391114622354507,-0.9707594513893127,41161.41030575,unknown,2,2020-03-09 10:28:58.775 +0100,605438957.5151852,0,44261.2,100.371
2020-03-09 10:29:19.299 +0100,1583746158.14314,52.56374559181037,13.41010178203469,47.44508,2.024436,236.544757099502,1.253114291788581,44.24393249999714,-9999,41181.93308441667,0.1752471923828125,0.0944671630859375,-0.9693756103515625,41181.92303541667,-0.6452608877747397,0.2508146559031793,-0.01785130588298564,1.379165172576904,0.7376621961593628,-0.5314176082611084,0.0140979140996933,0.1262841522693634,-0.04569566249847412,XArbitraryZVertical,0.03125769251062011,0.1214283987811144,-0.3156187102684406,0.9405651331818398,0.2481536567211151,0.0178503580391407,-0.9685562252998352,41161.41030575,unknown,2,2020-03-09 10:28:58.775 +0100,605438957.5151852,0,44261.2,100.371
2020-03-09 10:29:19.314 +0100,1583746158.14314,52.56374559181037,13.41010178203469,47.44508,2.024436,236.544757099502,1.253114291788581,44.24393249999714,-9999,41181.94815741667,0.183349609375,0.056304931640625,-0.9351959228515625,41181.93810841667,-0.6572606669362892,0.2627885478796342,-0.001744328831756947,0.9841552972793579,0.8886509537696838,-0.4445556402206421,-0.05854237079620361,0.1004438474774361,-0.0219573974609375,XArbitraryZVertical,0.04146679933196361,0.1242842322770619,-0.3200729848036312,0.9382894711471973,0.2597739696502686,0.001744327950291336,-0.9656678438186646,41161.41030575,unknown,2,2020-03-09 10:28:58.775 +0100,605438957.5151852,0,44261.2,100.371
2020-03-09 10:29:19.329 +0100,1583746158.14314,52.56374559181037,13.41010178203469,47.44508,2.024436,236.544757099502,1.253114291788581,44.24393249999714,-9999,41181.96322929167,0.3103790283203125,0.058380126953125,-0.9518280029296875,41181.95318141667,-0.6654295530292067,0.2775643461838306,0.005753924147285819,0.2513584792613983,1.05030369758606,-0.3517887890338898,-0.09066125750541687,0.06205893307924271,0.02651363611221313,XArbitraryZVertical,0.04787515343444421,0.1298194290476855,-0.3230923393368609,0.9361977143849601,0.274009495973587,-0.005753892473876476,-0.9617097973823547,41161.41030575,unknown,2,2020-03-09 10:28:58.775 +0100,605438957.5151852,0,44261.2,100.371
2020-03-09 10:29:19.345 +0100,1583746158.14314,52.56374559181037,13.41010178203469,47.44508,2.024436,236.544757099502,1.253114291788581,44.24393249999714,-9999,41181.97830329167,0.3731842041015625,0.0642242431640625,-0.979949951171875,41181.96825429167,-0.6700166362967043,0.2939595526301334,0.003101069750184169,-0.3719035685062408,1.114544987678528,-0.3327783942222595,-0.02341738343238831,0.0564306229352951,0.013907790184021,XArbitraryZVertical,0.04959827137336698,0.1378051286979138,-0.32501729273175,0.9342983325981099,0.2897427976131439,-0.003101064823567867,-0.9570994973182678,41161.41030575,unknown,2,2020-03-09 10:28:58.775 +0100,605438957.5151852,0,44261.2,100.371
2020-03-09 10:29:19.360 +0100,1583746158.14314,52.56374559181037,13.41010178203469,47.44508,2.024436,236.544757099502,1.253114291788581,44.24393249999714,-9999,41181.99337629167,0.37652587890625,0.1515350341796875,-0.951416015625,41181.98332729167,-0.6727037176389189,0.3107583223736377,-0.005059863314857986,-0.4673089385032654,1.095058083534241,-0.3325003683567047,0.06740584969520569,0.05916444957256317,-0.02786040306091309,XArbitraryZVertical,0.04871655057834178,0.1469074905270039,-0.3264380347138005,0.9324607569903323,0.3057768046855927,0.005059841554611921,-0.952089786529541,41161.41030575,unknown,2,2020-03-09 10:28:58.775 +0100,605438957.5151852,0,44261.2,100.371
2020-03-09 10:29:19.375 +0100,1583746158.14314,52.56374559181037,13.41010178203469,47.44508,2.024436,236.544757099502,1.253114291788581,44.24393249999714,-9999,41182.00844929167,0.3682098388671875,0.18414306640625,-0.9857177734375,41181.99840029167,-0.6761826970195721,0.3259696604199271,-0.01232999831132202,-0.2877399623394012,0.9106435775756836,-0.4091953933238983,0.05638211965560913,0.1056817919015884,-0.006024479866027832,XArbitraryZVertical,0.04808104131987119,0.1550931674290949,-0.3282288726727564,0.9305375118568853,0.3202031850814819,0.01232968550175428,-0.9472686648368835,41161.41030575,unknown,2,2020-03-09 10:28:58.775 +0100,605438957.5151852,0,44261.2,100.371
2020-03-09 10:29:19.390 +0100,1583746158.14314,52.56374559181037,13.41010178203469,47.44508,2.024436,236.544757099502,1.253114291788581,44.24393249999714,-9999,41182.02352329167,0.324981689453125,0.187408447265625,-1.08111572265625,41182.01347429167,-0.6814453183737071,0.3380722957435632,-0.01753511790145424,-0.1801558881998062,0.7038282155990601,-0.4868630766868591,0.03658998012542725,0.1666088253259659,-0.04246735572814941,XArbitraryZVertical,0.04807009472782857,0.1614431726638421,-0.33078305420856,0.9285514484348917,0.3316181302070618,0.01753421872854233,-0.9432507157325745,41161.41030575,unknown,2,2020-03-09 10:28:58.775 +0100,605438957.5151852,0,44261.2,100.371
2020-03-09 10:29:19.405 +0100,1583746158.14314,52.56374559181037,13.41010178203469,47.44508,2.024436,236.544757099502,1.253114291788581,44.24393249999714,-9999,41182.03859629167,0.2529144287109375,0.220733642578125,-1.159332275390625,41182.02854729167,-0.6880726480966863,0.3471252249120426,-0.02422035509739949,-0.4074252247810364,0.5279161334037781,-0.6392489671707153,0.004735469818115234,0.1569648236036301,-0.1059725880622864,XArbitraryZVertical,0.04701416770321115,0.1665841650829765,-0.3341665179672163,0.9264836316822602,0.340096116065979,0.0242179874330759,-0.9400787949562073,41161.41030575,unknown,2,2020-03-09 10:28:58.775 +0100,605438957.5151852,0,44261.2,100.371
2020-03-09 10:29:19.420 +0100,1583746158.14314,52.56374559181037,13.41010178203469,47.44508,2.024436,236.544757099502,1.253114291788581,44.24393249999714,-9999,41182.05366929167,0.1955718994140625,0.2715606689453125,-1.26519775390625,41182.04362029167,-0.6945405461479264,0.3538686958332709,-0.03650758058878845,-0.8459011316299438,0.3907691836357117,-0.7081620097160339,-0.09338587522506714,0.1842340528964996,-0.221918523311615,XArbitraryZVertical,0.04299758461830661,0.1715930487683341,-0.3379841505992435,0.9243773902809275,0.346298485994339,0.03649947047233582,-0.9374140501022339,41161.41030575,unknown,2,2020-03-09 10:28:58.775 +0100,605438957.5151852,0,44261.2,100.371
2020-03-09 10:29:19.435 +0100,1583746158.14314,52.56374559181037,13.41010178203469,47.44508,2.024436,236.544757099502,1.253114291788581,44.24393249999714,-9999,41182.06874229167,0.2263641357421875,0.3197021484375,-1.40240478515625,41182.05869429167,-0.6987987318054671,0.3586399449471125,-0.05473527704393143,-1.159860253334045,0.2671225965023041,-0.6507800817489624,-0.1417675614356995,0.2004645615816116,-0.2910712957382202,XArbitraryZVertical,0.03573736115698955,0.1767384259004177,-0.3413039679746759,0.9224953876242068,0.3504753708839417,0.05470795184373856,-0.9349727630615234,41161.41030575,unknown,2,2020-03-09 10:28:58.775 +0100,605438957.5151852,0,44261.2,100.371
2020-03-09 10:29:19.450 +0100,1583746158.14314,52.56374559181037,13.41010178203469,47.44508,2.024436,236.544757099502,1.253114291788581,44.24393249999714,-9999,41182.08381629167,0.3151702880859375,0.3396148681640625,-1.479949951171875,41182.07376729167,-0.7016818542818183,0.361603122951289,-0.07324512329034547,-0.9173049330711365,0.1489748358726501,-0.5870402455329895,-0.126463383436203,0.2465221732854843,-0.4695821404457092,XArbitraryZVertical,0.02793633211136594,0.1811299103704044,-0.3440416757103832,0.9208944503281188,0.3528255820274353,0.07317964732646942,-0.9328230619430542,41161.41030575,unknown,2,2020-03-09 10:28:58.775 +0100,605438957.5151852,0,44261.2,100.371
2020-03-09 10:29:19.465 +0100,1583746158.14314,52.56374559181037,13.41010178203469,47.44508,2.024436,236.544757099502,1.253114291788581,44.24393249999714,-9999,41182.09888929167,0.3660430908203125,0.285980224609375,-1.438186645507812,41182.08884029167,-0.7064067650908444,0.3623761251453766,-0.08478364245806262,-0.2677946090698242,0.02386981621384621,-0.5231068134307861,-0.06724539399147034,0.2590827941894531,-0.533344030380249,XArbitraryZVertical,0.02316341283790652,0.1833418796765947,-0.3471024171552405,0.9194395295908513,0.3532237112522125,0.08468210697174072,-0.9316984415054321,41161.41030575,unknown,2,2020-03-09 10:28:58.775 +0100,605438957.5151852,0,44261.2,100.371
2020-03-09 10:29:19.480 +0100,1583746158.14314,52.56374559181037,13.41010178203469,47.44508,2.024436,236.544757099502,1.253114291788581,44.24393249999714,-9999,41182.11396229167,0.389678955078125,0.1951141357421875,-1.352340698242188,41182.10391429167,-0.7130289781044946,0.3622744448343918,-0.08674303993009994,0.2919123768806458,0.06043581292033195,-0.381517231464386,0.01297169923782349,0.1993455290794373,-0.5066096186637878,XArbitraryZVertical,0.02284766251888712,0.1835464222725839,-0.3502969003207526,0.9181942703190497,0.3530694842338562,0.08663430064916611,-0.9315773844718933,41161.41030575,unknown,2,2020-03-09 10:28:58.775 +0100,605438957.5151852,0,44261.2,100.371
2020-03-09 10:29:19.495 +0100,1583746158.14314,52.56374559181037,13.41010178203469,47.44508,2.024436,236.544757099502,1.253114291788581,44.24393249999714,-9999,41182.12903629167,0.4323883056640625,0.1360015869140625,-1.285400390625,41182.11898729167,-0.7196365618080923,0.3633253755700009,-0.08207391681582499,0.5502718091011047,0.1609889566898346,-0.2111234962940216,0.02628779411315918,0.1432070434093475,-0.4493470191955566,XArbitraryZVertical,0.02579304099517194,0.1831606653582658,-0.3529558185408136,0.9171745335227525,0.3541882038116455,0.08198180794715881,-0.9315738081932068,41161.41030575,unknown,2,2020-03-09 10:28:58.775 +0100,605438957.5151852,0,44261.2,100.371
2020-03-09 10:29:19.512 +0100,1583746158.14314,52.56374559181037,13.41010178203469,47.44508,2.024436,236.544757099502,1.253114291788581,44.24393249999714,-9999,41182.14410929167,0.469482421875,0.1257171630859375,-1.235671997070312,41182.13406029167,-0.7245224460284037,0.3660522384184067,-0.07494799435672816,0.5244656205177307,0.23907570540905,-0.06660702079534531,0.07545909285545349,0.06112338602542877,-0.3542744517326355,XArbitraryZVertical,0.03000724342927526,0.1831294378574899,-0.3546020725253203,0.9164172112887164,0.3569271862506866,0.07487785071134567,-0.9311263561248779,41161.41030575,unknown,2,2020-03-09 10:28:58.775 +0100,605438957.5151852,0,44261.2,100.371
2020-03-09 10:29:19.525 +0100,1583746158.14314,52.56374559181037,13.41010178203469,47.44508,2.024436,236.544757099502,1.253114291788581,44.24393249999714,-9999,41182.15918229167,0.4908294677734375,0.1501007080078125,-1.262008666992188,41182.14913329167,-0.7274162127832788,0.3695183855494535,-0.06866281616891554,0.3963837325572968,0.2357169687747955,-0.000379662960767746,0.09759888052940369,0.05838970839977264,-0.3188875913619995,XArbitraryZVertical,0.03378152149849206,0.1835940341743577,-0.3553748896669802,0.9158933700396485,0.3603153228759766,0.06860887259244919,-0.9303040504455566,41161.41030575,unknown,2,2020-03-09 10:28:58.775 +0100,605438957.5151852,0,44261.2,100.371
2020-03-09 10:29:19.540 +0100,1583746158.14314,52.56374559181037,13.41010178203469,47.44508,2.024436,236.544757099502,1.253114291788581,44.24393249999714,-9999,41182.17425629167,0.473724365234375,0.1565704345703125,-1.309585571289062,41182.16420729167,-0.7290109587165027,0.3729497669814579,-0.06348532448340181,0.3313038051128387,0.2514213621616364,0.06603824347257614,0.1271974146366119,0.08665773272514343,-0.3326284885406494,XArbitraryZVertical,0.03691990801799957,0.1842461209123936,-0.355628138038473,0.9155429341458036,0.3636299967765808,0.06344268471002579,-0.9293805956840515,41161.41030575,unknown,2,2020-03-09 10:28:58.775 +0100,605438957.5151852,0,44261.2,100.371
2020-03-09 10:29:19.555 +0100,1583746158.14314,52.56374559181037,13.41010178203469,47.44508,2.024436,236.544757099502,1.253114291788581,44.24393249999714,-9999,41182.18932929167,0.4600067138671875,0.141632080078125,-1.247161865234375,41182.17928029167,-0.7293360652581123,0.3771922985789613,-0.05826178284169291,0.3459144532680511,0.3131497502326965,0.1322928965091705,0.1158318221569061,0.1019729375839233,-0.3691014051437378,XArbitraryZVertical,0.04010542810117822,0.1852810832750826,-0.3552683642049562,0.9153397777183023,0.3676866590976715,0.05822882801294327,-0.9281249642372131,41161.41030575,unknown,2,2020-03-09 10:28:58.775 +0100,605438957.5151852,0,44261.2,100.371
2020-03-09 10:29:19.570 +0100,1583746158.14314,52.56374559181037,13.41010178203469,47.44508,2.024436,236.544757099502,1.253114291788581,44.24393249999714,-9999,41182.20440229167,0.46026611328125,0.15338134765625,-1.149520874023438,41182.19435329167,-0.7296844968237142,0.3827262809505542,-0.05226909175754807,0.4034961760044098,0.4282815754413605,0.1207254528999329,0.08706381916999817,0.08938656747341156,-0.3207792043685913,XArbitraryZVertical,0.04387362433975522,0.1867714783613155,-0.3548122335655195,0.9150408402751251,0.372940868139267,0.05224529281258583,-0.9263830184936523,41161.41030575,unknown,2,2020-03-09 10:28:58.775 +0100,605438957.5151852,0,44261.2,100.371
2020-03-09 10:29:19.585 +0100,1583746158.14314,52.56374559181037,13.41010178203469,47.44508,2.024436,236.544757099502,1.253114291788581,44.24393249999714,-9999,41182.21947629167,0.433746337890625,0.154571533203125,-1.053268432617188,41182.20942729167,-0.7302921964783901,0.3901139312036137,-0.0449560416421091,0.5565598011016846,0.5448676347732544,0.1723236739635468,0.08184987306594849,0.1055105924606323,-0.2563822269439697,XArbitraryZVertical,0.04859755306453334,0.1888719905436457,-0.3542948870096047,0.9145713657968723,0.3799095451831818,0.04494090005755424,-0.9239313006401062,41161.41030575,unknown,2,2020-03-09 10:28:58.775 +0100,605438957.5151852,0,44261.2,100.371
2020-03-09 10:29:19.600 +0100,1583746158.14314,52.56374559181037,13.41010178203469,47.44508,2.024436,236.544757099502,1.253114291788581,44.24393249999714,-9999,41182.23454929167,0.418853759765625,0.115203857421875,-0.947265625,41182.22450029167,-0.7317635060278901,0.3986283657109953,-0.03415205476668862,0.8367353081703186,0.5855287909507751,0.1908638030290604,0.0458158552646637,0.1204259842634201,-0.1322120428085327,XArbitraryZVertical,0.05519838740422382,0.190852598531454,-0.3537958051797809,0.9139785243306525,0.3879282772541046,0.03414541482925415,-0.921056866645813,41161.41030575,unknown,2,2020-03-09 10:28:58.775 +0100,605438957.5151852,0,44261.2,100.371
2020-03-09 10:29:19.616 +0100,1583746158.14314,52.56374559181037,13.41010178203469,47.44508,2.024436,236.544757099502,1.253114291788581,44.24393249999714,-9999,41182.24962229167,0.40643310546875,0.0433807373046875,-0.909881591796875,41182.23957329167,-0.7344225539962725,0.4077247312096965,-0.02039115513400034,0.9354650974273682,0.6306819319725037,0.1904028654098511,0.02575409412384033,0.111827626824379,-0.05849951505661011,XArbitraryZVertical,0.06336111582562899,0.1925307661873846,-0.3534877429404933,0.9132161610901975,0.3964391648769379,0.0203897412866354,-0.9178345203399658,41161.41030575,unknown,2,2020-03-09 10:28:58.775 +0100,605438957.5151852,0,44261.2,100.371
2020-03-09 10:29:19.631 +0100,1583746158.14314,52.56374559181037,13.41010178203469,47.44508,2.024436,236.544757099502,1.253114291788581,44.24393249999714,-9999,41182.26469629167,0.373443603515625,-0.0036773681640625,-0.8395233154296875,41182.25464729167,-0.7376396335448586,0.4174051262410736,-0.006901059123139801,0.872863233089447,0.6544761061668396,0.1328707337379456,0.001050829887390137,0.03647978603839874,0.004240155220031738,XArbitraryZVertical,0.07154626758993242,0.1944737502849117,-0.3533566322223424,0.9122500653302056,0.4053800702095032,0.00690100435167551,-0.9141221642494202,41161.41030575,unknown,2,2020-03-09 10:28:58.775 +0100,605438957.5151852,0,44261.2,100.371
2020-03-09 10:29:19.646 +0100,1583746158.14314,52.56374559181037,13.41010178203469,47.44508,2.024436,236.544757099502,1.253114291788581,44.24393249999714,-9999,41182.27976929167,0.29986572265625,0.0260009765625,-0.79791259765625,41182.26972029167,-0.7415577249176195,0.4274942396260561,0.004974029252754462,0.7623222470283508,0.6805203557014465,0.03248874098062515,-0.02420809864997864,0.006591528654098511,0.03693360090255737,XArbitraryZVertical,0.07912606496680331,0.1968272305917513,-0.3536028492719215,0.9110231117013905,0.4145867228507996,-0.004974008537828922,-0.9099962115287781,41161.41030575,unknown,2,2020-03-09 10:28:58.775 +0100,605438957.5151852,0,44261.2,100.371
2020-03-09 10:29:19.661 +0100,1583746158.999143,52.56373580576895,13.41007873784907,47.2616,1.946796,235.7951872415886,1.267205085450472,48.68945057598593,-9999,41182.29484229167,0.223388671875,0.090850830078125,-0.792022705078125,41182.28479329167,-0.7458202466589173,0.438006160907786,0.01460649131902633,0.6456848382949829,0.7125299572944641,0.01909064128994942,-0.1242260336875916,0.04060710966587067,0.1075894236564636,XArbitraryZVertical,0.08578915203362231,0.1997222161219776,-0.3541378599595215,0.909581017245263,0.4240894317626953,-0.01460597198456526,-0.9055024981498718,41161.41030575,unknown,2,2020-03-09 10:28:58.775 +0100,605438957.5151852,0,44261.2,100.371
2020-03-09 10:29:19.676 +0100,1583746158.999143,52.56373580576895,13.41007873784907,47.2616,1.946796,235.7951872415886,1.267205085450472,48.68945057598593,-9999,41182.30991629167,0.1571044921875,0.129638671875,-0.7670745849609375,41182.29986729167,-0.7491914322131619,0.4490259407258057,0.02341711321903459,0.6151067614555359,0.7427719831466675,0.06578044593334198,-0.1843377947807312,0.09349879622459412,0.1042208671569824,XArbitraryZVertical,0.09207740782142229,0.2030026310526371,-0.3542629547186267,0.9081901893574086,0.4339692294597626,-0.0234149731695652,-0.9006233811378479,41161.41030575,unknown,2,2020-03-09 10:28:58.775 +0100,605438957.5151852,0,44261.2,100.371
2020-03-09 10:29:19.691 +0100,1583746158.999143,52.56373580576895,13.41007873784907,47.2616,1.946796,235.7951872415886,1.267205085450472,48.68945057598593,-9999,41182.32498929167,0.1459503173828125,0.103790283203125,-0.7575531005859375,41182.31494029167,-0.7524310688866694,0.4604207940033809,0.03213170192830398,0.6185305118560791,0.7588204741477966,0.0677909329533577,-0.2869935631752014,0.161765068769455,0.1283280253410339,XArbitraryZVertical,0.09837155212946867,0.2064496256747709,-0.3542550677749772,0.9067551623429084,0.4440957605838776,-0.03212617337703705,-0.8954032063484192,41161.41030575,unknown,2,2020-03-09 10:28:58.775 +0100,605438957.5151852,0,44261.2,100.371
2020-03-09 10:29:19.706 +0100,1583746158.999143,52.56373580576895,13.41007873784907,47.2616,1.946796,235.7951872415886,1.267205085450472,48.68945057598593,-9999,41182.34006229167,0.159423828125,0.0748138427734375,-0.7170562744140625,41182.33001329167,-0.7553618874449631,0.4720007551527197,0.04151927647898201,0.6744783520698547,0.7583719491958618,0.1512809097766876,-0.3095195591449738,0.1553687304258347,0.1251980066299438,XArbitraryZVertical,0.1049650074687592,0.2098474227006055,-0.3539552353738308,0.9053518931845795,0.4542773365974426,-0.04150734841823578,-0.8898928165435791,41161.41030575,unknown,2,2020-03-09 10:28:58.775 +0100,605438957.5151852,0,44261.2,100.371
2020-03-09 10:29:19.721 +0100,1583746158.999143,52.56373580576895,13.41007873784907,47.2616,1.946796,235.7951872415886,1.267205085450472,48.68945057598593,-9999,41182.35513529167,0.1861114501953125,0.032989501953125,-0.6462249755859375,41182.34508729167,-0.7578108885621934,0.4835291870533106,0.05226392851241895,0.7370546460151672,0.7558616399765015,0.2093703150749207,-0.3048504590988159,0.1270543187856674,0.1670938730239868,XArbitraryZVertical,0.1121003977133835,0.2129744298966841,-0.3532112560245142,0.904055981753368,0.4642718732357025,-0.05224013701081276,-0.8841508030891418,41161.41030575,unknown,2,2020-03-09 10:28:58.775 +0100,605438957.5151852,0,44261.2,100.371
2020-03-09 10:29:19.736 +0100,1583746158.999143,52.56373580576895,13.41007873784907,47.2616,1.946796,235.7951872415886,1.267205085450472,48.68945057598593,-9999,41182.37020929167,0.2775726318359375,-0.0217132568359375,-0.5931243896484375,41182.36016029167,-0.7601461083481106,0.4947895708339219,0.06384428041577288,0.7533413171768188,0.7212921977043152,0.2422758489847183,-0.304036021232605,0.1153455227613449,0.1972447037696838,XArbitraryZVertical,0.1195376042583841,0.2158076653384177,-0.3522518596392199,0.9028046903940113,0.4738790392875671,-0.06380091607570648,-0.8782756328582764,41161.41030575,unknown,2,2020-03-09 10:28:58.775 +0100,605438957.5151852,0,44261.2,100.371
2020-03-09 10:29:19.751 +0100,1583746158.999143,52.56373580576895,13.41007873784907,47.2616,1.946796,235.7951872415886,1.267205085450472,48.68945057598593,-9999,41182.38528229167,0.3084869384765625,-0.0367431640625,-0.584808349609375,41182.37523329167,-0.7621804449997472,0.5055630072366274,0.07586606243766043,0.789716899394989,0.6864106059074402,0.2734650373458862,-0.2053370177745819,0.054080531001091,0.2792602181434631,XArbitraryZVertical,0.1270372478872033,0.2183320236668541,-0.3510495570047772,0.9016411762248487,0.4829070270061493,-0.0757933035492897,-0.8723853230476379,41161.41030575,unknown,2,2020-03-09 10:28:58.775 +0100,605438957.5151852,0,44261.2,100.371
2020-03-09 10:29:19.766 +0100,1583746158.999143,52.56373580576895,13.41007873784907,47.2616,1.946796,235.7951872415886,1.267205085450472,48.68945057598593,-9999,41182.40035529167,0.2650909423828125,-0.07537841796875,-0.6059722900390625,41182.39030729167,-0.7646788916932171,0.5156946409118733,0.08817903783516559,0.7800163626670837,0.6403169631958008,0.2391764670610428,-0.1785277128219604,0.05252765119075775,0.2779313325881958,XArbitraryZVertical,0.1345867863396531,0.2204568182043557,-0.349979822692583,0.9004438393478595,0.4912232756614685,-0.08806481212377548,-0.8665703535079956,41161.41030575,unknown,2,2020-03-09 10:28:58.775 +0100,605438957.5151852,0,44261.2,100.371
2020-03-09 10:29:19.782 +0100,1583746158.999143,52.56373580576895,13.41007873784907,47.2616,1.946796,235.7951872415886,1.267205085450472,48.68945057598593,-9999,41182.41542929167,0.2153472900390625,-0.0785675048828125,-0.6483612060546875,41182.40538029167,-0.7669037752428379,0.5257110672648738,0.09877708664830749,0.5193943977355957,0.6749727129936218,0.1977179795503616,-0.2342937886714935,0.02323876321315765,0.2547779679298401,XArbitraryZVertical,0.141304173570681,0.2228398722907428,-0.3489366678736252,0.8992322626127056,0.4993820190429688,-0.09861654043197632,-0.8607510328292847,41161.41030575,unknown,2,2020-03-09 10:28:58.775 +0100,605438957.5151852,0,44261.2,100.371
2020-03-09 10:29:19.797 +0100,1583746158.999143,52.56373580576895,13.41007873784907,47.2616,1.946796,235.7951872415886,1.267205085450472,48.68945057598593,-9999,41182.43050229167,0.2142791748046875,-0.0461883544921875,-0.5351104736328125,41182.42045329167,-0.766618957403011,0.5363062868042928,0.1028286031295326,-0.1171033009886742,0.7425447106361389,0.1106765866279602,-0.2764565944671631,0.01985393464565277,0.2153357863426208,XArbitraryZVertical,0.1449174913693588,0.2268661958524448,-0.3475213559243419,0.898197929520459,0.5082653164863586,-0.1026474833488464,-0.8550612926483154,41161.41030575,unknown,2,2020-03-09 10:28:58.775 +0100,605438957.5151852,0,44261.2,100.371
2020-03-09 10:29:19.812 +0100,1583746158.999143,52.56373580576895,13.41007873784907,47.2616,1.946796,235.7951872415886,1.267205085450472,48.68945057598593,-9999,41182.44557529167,0.2370452880859375,-0.049468994140625,-0.4073638916015625,41182.43552629167,-0.7602883585999157,0.5477182143731487,0.0956145683846079,-1.238949656486511,0.8491917848587036,0.1267277449369431,-0.3040856719017029,0.04928119480609894,0.3147041797637939,XArbitraryZVertical,0.1429602698865512,0.2337832418004832,-0.344816826251041,0.8977799882888479,0.5183620452880859,-0.09546894580125809,-0.8498154878616333,41161.41030575,unknown,2,2020-03-09 10:28:58.775 +0100,605438957.5151852,0,44261.2,100.371
2020-03-09 10:29:19.827 +0100,1583746158.999143,52.56373580576895,13.41007873784907,47.2616,1.946796,235.7951872415886,1.267205085450472,48.68945057598593,-9999,41182.46064929167,0.280609130859375,-0.061614990234375,-0.240692138671875,41182.45060029167,-0.7425449239454507,0.5597087956284875,0.07101204236448629,-2.815428495407104,0.9439394474029541,0.1277874261140823,-0.3039113283157349,0.03900091350078583,0.4200718402862549,XArbitraryZVertical,0.1319412817647713,0.2448560435260827,-0.3393299809557151,0.8986056722389901,0.5296013355255127,-0.07095237821340561,-0.845274031162262,41161.41030575,unknown,2,2020-03-09 10:28:58.775 +0100,605438957.5151852,0,44261.2,100.371
2020-03-09 10:29:19.842 +0100,1583746158.999143,52.56373580576895,13.41007873784907,47.2616,1.946796,235.7951872415886,1.267205085450472,48.68945057598593,-9999,41182.47572229167,0.2828216552734375,0.0102996826171875,-0.303741455078125,41182.46567329167,-0.7093803954557661,0.5733900926757297,0.02306112340301104,-5.005002498626709,1.087757349014282,0.2103787064552307,-0.2617325186729431,-0.03855571150779724,0.5991504192352295,XArbitraryZVertical,0.108575485269664,0.2613229472526491,-0.3300446018367634,0.9005510547883554,0.5423387885093689,-0.02305907942354679,-0.8398433327674866,41161.41030575,unknown,2,2020-03-09 10:28:58.775 +0100,605438957.5151852,0,44261.2,100.371
2020-03-09 10:29:19.857 +0100,1583746158.999143,52.56373580576895,13.41007873784907,47.2616,1.946796,235.7951872415886,1.267205085450472,48.68945057598593,-9999,41182.49079529167,0.337982177734375,0.1136627197265625,-0.5352935791015625,41182.48074629167,-0.6547408712871793,0.5920881279116946,-0.05016721550335787,-6.96030330657959,1.303722381591797,0.5113596320152283,-0.2717205882072449,-0.06557299941778183,0.5783965587615967,XArbitraryZVertical,0.07106447756902032,0.2838719257245645,-0.3143977550295703,0.9030617097276373,0.5573927760124207,0.05014617368578911,-0.8287331461906433,41161.41030575,unknown,2,2020-03-09 10:28:58.775 +0100,605438957.5151852,0,44261.2,100.371
