loggingTime(txt),accelerometerTimestamp_sinceReboot(s),accelerometerAccelerationX(G),accelerometerAccelerationY(G),accelerometerAccelerationZ(G),motionTimestamp_sinceReboot(s),motionYaw(rad),motionRoll(rad),motionPitch(rad),motionRotationRateX(rad/s),motionRotationRateY(rad/s),motionRotationRateZ(rad/s),motionUserAccelerationX(G),motionUserAccelerationY(G),motionUserAccelerationZ(G),motionAttitudeReferenceFrame(txt),motionQuaternionX(R),motionQuaternionY(R),motionQuaternionZ(R),motionQuaternionW(R),motionGravityX(G),motionGravityY(G),motionGravityZ(G),activityTimestamp_sinceReboot(s),activity(txt),activityActivityConfidence(Z),activityActivityStartDate(txt),altimeterTimestamp_sinceReboot(s),altimeterReset(bool),altimeterRelativeAltitude(m),altimeterPressure(kPa)
2020-03-09 11:19:05.291 +0100,42699.75070279167,0.1626434326171875,-0.017059326171875,-1.017318725585938,42699.74567779167,0.08600586806889228,0.1771714618510604,0.01854971806409181,0.2473223209381104,-0.06697902828454971,-0.05109438672661781,-0.03263118863105774,0.02399618551135063,-0.03964221477508545,XArbitraryZVertical,0.005426687877390562,0.08878147854669559,0.04363904648281464,0.9950799075291711,0.1762156933546066,-0.01854865439236164,-0.9841768145561218,42699.42019079167,unknown,2,2020-03-09 11:19:04.918 +0100,605441944.2979221,0,44257.75,100.3979
2020-03-09 11:19:05.297 +0100,42699.76075079167,0.197052001953125,-0.03839111328125,-1.017562866210938,42699.75572679167,0.08500211376997326,0.177010156222743,0.0205355224402477,0.1614436358213425,0.02656317315995693,-0.06698999553918839,-0.0134073793888092,0.003474906086921692,-0.03315174579620361,XArbitraryZVertical,0.006462835943956807,0.08873965031525714,0.04322646075493071,0.9950954370062127,0.1760501116514206,-0.02053407952189445,-0.9841670393943787,42699.42019079167,unknown,2,2020-03-09 11:19:04.918 +0100,605441944.2979221,0,44257.75,100.3979
2020-03-09 11:19:05.298 +0100,42699.77079979167,0.2128753662109375,-0.0477294921875,-1.011749267578125,42699.76577579167,0.08423772388483544,0.1776046768753999,0.02146199367860624,0.04777435213327408,0.0897858589887619,-0.04830509051680565,0.02041955292224884,-0.01693060994148254,-0.0335199236869812,XArbitraryZVertical,0.006945008441191688,0.08905197307896168,0.04288890597488733,0.9950788977382118,0.1766317486763,-0.02146034687757492,-0.9840430021286011,42699.42019079167,unknown,2,2020-03-09 11:19:04.918 +0100,605441944.2979221,0,44257.75,100.3979
2020-03-09 11:19:05.299 +0100,42699.78084879167,0.214019775390625,-0.0556182861328125,-1.012054443359375,42699.77582479167,0.08401366313263645,0.1783746002805391,0.02155463016869062,-0.002632630988955498,0.06261415779590607,0.009624788537621498,0.03548566997051239,-0.02617637440562248,-0.02784454822540283,XArbitraryZVertical,0.006984609379397972,0.08943615132507174,0.04278420237440653,0.9950486564332119,0.1773889809846878,-0.02155296131968498,-0.9839047789573669,42699.42019079167,unknown,2,2020-03-09 11:19:04.918 +0100,605441944.2979221,0,44257.75,100.3979
2020-03-09 11:19:05.299 +0100,42699.79089779167,0.1801300048828125,-0.0358123779296875,-0.9968414306640625,42699.78587379167,0.0842132089319096,0.1789075713941154,0.02162023252523616,0.01612169109284878,0.05450845137238503,0.02699319273233414,0.03610597550868988,-0.03399958088994026,-0.02824580669403076,XArbitraryZVertical,0.006996898479893638,0.08970335117882479,0.04288825017684812,0.9950200599758604,0.177913099527359,-0.0216185487806797,-0.983808696269989,42699.42019079167,unknown,2,2020-03-09 11:19:04.918 +0100,605441944.2979221,0,44257.75,100.3979
2020-03-09 11:19:05.300 +0100,42699.80094679167,0.15118408203125,-0.023162841796875,-0.9963836669921875,42699.79592279167,0.08439748997057775,0.1794644314989546,0.02201609654965301,0.06579603999853134,0.05708212777972221,0.02965901792049408,0.001669928431510925,-0.01379790157079697,-0.01314049959182739,XArbitraryZVertical,0.00717362259256101,0.08998915734157567,0.0429995054946439,0.9949881885020565,0.1784593760967255,-0.02201431803405285,-0.9837009906768799,42699.42019079167,unknown,2,2020-03-09 11:19:04.918 +0100,605441944.2979221,0,44257.75,100.3979
2020-03-09 11:19:05.310 +0100,42699.81099579167,0.14410400390625,-0.0247650146484375,-0.99249267578125,42699.80597179167,0.08464654486679436,0.1797419985064441,0.02306088939513836,0.142436608672142,0.01939434558153152,0.05581638589501381,-0.02754482626914978,-0.0001038331538438797,-0.01275551319122314,XArbitraryZVertical,0.007676243159533748,0.09014962424151696,0.04317099593462286,0.9949624463098924,0.1787281930446625,-0.02305884473025799,-0.9836282134056091,42699.42019079167,unknown,2,2020-03-09 11:19:04.918 +0100,605441944.2979221,0,44257.75,100.3979
2020-03-09 11:19:05.321 +0100,42699.82104479167,0.152740478515625,-0.0241546630859375,-0.9791259765625,42699.81602079167,0.08485334289301097,0.1796981939088594,0.02498601397210027,0.2388923019170761,-0.007408507168292999,0.0494743324816227,-0.0345735102891922,0.0002185646444559097,-0.008902192115783691,XArbitraryZVertical,0.008625661298698019,0.09016824258354762,0.04335950012793834,0.9949448400953597,0.1786768436431885,-0.02498341351747513,-0.9835905432701111,42699.42019079167,unknown,2,2020-03-09 11:19:04.918 +0100,605441944.2979221,0,44257.75,100.3979
2020-03-09 11:19:05.331 +0100,42699.83109379167,0.1804656982421875,-0.0447540283203125,-0.9610595703125,42699.82606979167,0.08488045197624045,0.1795051707911996,0.02762402600935258,0.2745412588119507,-0.01831839792430401,0.05472771823406219,-0.0257347971200943,0.003466026857495308,0.004430711269378662,XArbitraryZVertical,0.00994109147032509,0.09012651528626998,0.04348952983210392,0.9949306571133872,0.1784746050834656,-0.02762051299214363,-0.9835567474365234,42699.42019079167,unknown,2,2020-03-09 11:19:04.918 +0100,605441944.2979221,0,44257.75,100.3979
2020-03-09 11:19:05.341 +0100,42699.84114279167,0.176666259765625,-0.049835205078125,-0.962890625,42699.83611879167,0.08488715977259756,0.1792263399583301,0.03020766658328749,0.2271337807178497,-0.02510679513216019,0.02909159474074841,0.002278000116348267,-0.01455077156424522,0.02247339487075806,XArbitraryZVertical,0.01123226720532191,0.0900407566446539,0.04360618421605786,0.9949195760568876,0.1781870275735855,-0.0302030723541975,-0.9835330247879028,42699.42019079167,unknown,2,2020-03-09 11:19:04.918 +0100,605441944.2979221,0,44257.75,100.3979
2020-03-09 11:19:05.351 +0100,42699.85119179167,0.180908203125,-0.04217529296875,-0.976837158203125,42699.84616779167,0.08429991686129105,0.1790815643216945,0.03218044096744779,0.1850478947162628,-0.01445404812693596,-0.07454860955476761,-0.001368135213851929,-0.01766011863946915,0.02060753107070923,XArbitraryZVertical,0.01224334195323921,0.0900054583445726,0.04340071021265823,0.9949197480846715,0.1780336797237396,-0.03217488527297974,-0.983498215675354,42699.42019079167,unknown,2,2020-03-09 11:19:04.918 +0100,605441944.2979221,0,44257.75,100.3979
2020-03-09 11:19:05.361 +0100,42699.86124079167,0.200225830078125,-0.0399017333984375,-0.9887847900390625,42699.85621679167,0.08306962515610752,0.178987693695361,0.03385720832576176,0.1805777847766876,-0.01984748244285583,-0.08734962344169617,0.002975985407829285,-0.008324343711137772,0.006623268127441406,XArbitraryZVertical,0.01313496058959649,0.08998464496978717,0.04286238732688544,0.9949335830382463,0.1779315024614334,-0.03385074064135551,-0.9834604859352112,42699.42019079167,unknown,2,2020-03-09 11:19:04.918 +0100,605441944.2979221,0,44257.75,100.3979
2020-03-09 11:19:05.371 +0100,42699.87128979167,0.19635009765625,-0.0389251708984375,-0.9940338134765625,42699.86626579167,0.0823568042295096,0.1788473809232837,0.03543686313482727,0.1393025666475296,-0.02473189681768417,0.0001328820362687111,0.02244135737419128,-0.004472069442272186,-0.005353271961212158,XArbitraryZVertical,0.01395595042288766,0.08994131368820181,0.0425767593227566,0.9949385982714511,0.1777837723493576,-0.035429447889328,-0.9834315776824951,42699.42019079167,unknown,2,2020-03-09 11:19:04.918 +0100,605441944.2979221,0,44257.75,100.3979
2020-03-09 11:19:05.381 +0100,42699.88133879167,0.174530029296875,-0.03912353515625,-0.997894287109375,42699.87631379167,0.082415586622596,0.1786339601406147,0.0365894644753932,0.08143765479326248,-0.01574159786105156,0.04416106268763542,0.01878292858600616,-0.002343662083148956,-0.01060521602630615,XArbitraryZVertical,0.01453131459665381,0.08985826926690119,0.04265543884322589,0.9949345170894986,0.1775665134191513,-0.03658130019903183,-0.9834286570549011,42699.42019079167,unknown,2,2020-03-09 11:19:04.918 +0100,605441944.2979221,0,44257.75,100.3979
2020-03-09 11:19:05.391 +0100,42699.89138779167,0.1504058837890625,-0.0428466796875,-0.987640380859375,42699.88636279167,0.0828690987952219,0.1785976302773103,0.03711074823134546,0.01149416342377663,0.02555212005972862,0.06129427254199982,-0.002998009324073792,-0.002021089196205139,-0.01447814702987671,XArbitraryZVertical,0.01477107149302215,0.08985381281751503,0.04290380361301008,0.9949207121774777,0.1775273680686951,-0.03710222989320755,-0.9834161996841431,42699.42019079167,unknown,2,2020-03-09 11:19:04.918 +0100,605441944.2979221,0,44257.75,100.3979
2020-03-09 11:19:05.401 +0100,42699.90143679167,0.137664794921875,-0.0271148681640625,-0.97198486328125,42699.89641179167,0.08351495722873567,0.1789878282231653,0.03696620987821791,-0.05228987708687782,0.06555359810590744,0.05979810655117035,-0.02750681340694427,-0.005888678133487701,-0.004288315773010254,XArbitraryZVertical,0.01466171078127224,0.0900497945853117,0.04322156787822337,0.9948908832001004,0.1779120415449142,-0.03695779293775558,-0.9833521246910095,42699.42019079167,unknown,2,2020-03-09 11:19:04.918 +0100,605441944.2979221,0,44257.75,100.3979
2020-03-09 11:19:05.411 +0100,42699.91148579167,0.135223388671875,-0.015625,-0.9656219482421875,42699.90646079167,0.08409474026722928,0.1797426461966381,0.03655183323157131,-0.03823015466332436,0.09537959843873978,0.03925897926092148,-0.04099284112453461,0.009429037570953369,0.01124763488769531,XArbitraryZVertical,0.01441303406059781,0.09042117973284096,0.04349708082576673,0.9948488233285309,0.1786569654941559,-0.03654369339346886,-0.9832325577735901,42699.42019079167,unknown,2,2020-03-09 11:19:04.918 +0100,605441944.2979221,0,44257.75,100.3979
2020-03-09 11:19:05.421 +0100,42699.92153479167,0.1513824462890625,-0.0231170654296875,-0.9534759521484375,42699.91650979167,0.08461988812307314,0.1807982589638037,0.03641645880221268,-0.01994062960147858,0.1149924471974373,0.06266603618860245,-0.04447293281555176,0.02078362181782722,0.0174262523651123,XArbitraryZVertical,0.01429884947248074,0.0909472918320523,0.04375983797068753,0.9947909754049881,0.1796956658363342,-0.03640840947628021,-0.9830482602119446,42699.42019079167,unknown,2,2020-03-09 11:19:04.918 +0100,605441944.2979221,0,44257.75,100.3979
2020-03-09 11:19:05.431 +0100,42699.93158379167,0.1676025390625,-0.037872314453125,-0.948150634765625,42699.92655879167,0.0853513821902004,0.181984312240949,0.03619838375231283,-0.05843671783804893,0.122543640434742,0.06848134100437164,-0.02948114275932312,0.0130736231803894,0.02936619520187378,XArbitraryZVertical,0.01413093824405395,0.09153797308033106,0.04412231471390498,0.9947232097847047,0.1808629184961319,-0.03619047999382019,-0.9828422069549561,42699.42019079167,unknown,2,2020-03-09 11:19:04.918 +0100,605441944.2979221,0,44257.75,100.3979
2020-03-09 11:19:05.441 +0100,42699.94163279167,0.1937255859375,-0.049163818359375,-0.948577880859375,42699.93660779167,0.08607486049275076,0.1830938422372685,0.03550640982111908,-0.1024577021598816,0.1017358377575874,0.04669695347547531,-0.01435595750808716,-0.002373158931732178,0.0345146656036377,XArbitraryZVertical,0.01372895680700759,0.09208063682477011,0.04445862554737819,0.9946637989655058,0.1819578111171722,-0.03549895063042641,-0.9826653599739075,42699.42019079167,unknown,2,2020-03-09 11:19:04.918 +0100,605441944.2979221,0,44257.75,100.3979
2020-03-09 11:19:05.451 +0100,42699.95168179167,0.21746826171875,-0.05792236328125,-0.95111083984375,42699.94665679167,0.08670217443795372,0.1838867362401798,0.0346154643585212,-0.09260667860507965,0.05449242144823074,0.04922615736722946,0.01098227500915527,-0.01455506309866905,0.03397351503372192,XArbitraryZVertical,0.01323918677549714,0.0924607519995342,0.04473551540174054,0.9946227644317754,0.1827426105737686,-0.03460855036973953,-0.9825514554977417,42699.42019079167,unknown,2,2020-03-09 11:19:04.918 +0100,605441944.2979221,0,44257.75,100.3979
2020-03-09 11:19:05.461 +0100,42699.96173079167,0.213623046875,-0.0487060546875,-0.955657958984375,42699.95670579167,0.08750151952027378,0.1842673983356194,0.03391493074489503,-0.07833372056484222,0.01937305182218552,0.07935423403978348,0.03434655070304871,-0.02401373162865639,0.03139454126358032,XArbitraryZVertical,0.01284522076064463,0.09264063764614555,0.04510361835686538,0.9945945673455798,0.1831210106611252,-0.0339084304869175,-0.9825054407119751,42699.42019079167,unknown,2,2020-03-09 11:19:04.918 +0100,605441944.2979221,0,44257.75,100.3979
2020-03-09 11:19:05.471 +0100,42699.97177979167,0.18609619140625,-0.03472900390625,-0.964752197265625,42699.96675479167,0.0883763226605203,0.1842540147566875,0.03333692960816938,-0.06586319208145142,-0.00732668861746788,0.0690423771739006,0.03051091730594635,-0.01537510007619858,0.02686893939971924,XArbitraryZVertical,0.0125175300718738,0.09262733201423223,0.04551222393620667,0.9945813277926948,0.1831114292144775,-0.03333075344562531,-0.982526957988739,42699.42019079167,unknown,2,2020-03-09 11:19:04.918 +0100,605441944.2979221,0,44257.75,100.3979
2020-03-09 11:19:05.481 +0100,42699.98182879167,0.1702117919921875,-0.0234527587890625,-0.9745330810546875,42699.97680379167,0.08915632418427218,0.1840416474329091,0.03299388854808872,-0.0290862675756216,-0.02298474311828613,0.07391063123941422,0.003190606832504272,-0.001740895211696625,0.01782476902008057,XArbitraryZVertical,0.01231566496905384,0.09251925489315475,0.04588316735495623,0.9945768194772968,0.1829048544168472,-0.03298790380358696,-0.9825770258903503,42699.42019079167,unknown,2,2020-03-09 11:19:04.918 +0100,605441944.2979221,0,44257.75,100.3979
2020-03-09 11:19:05.491 +0100,42699.99187679167,0.1668243408203125,-0.0328216552734375,-0.9822845458984375,42699.98685279167,0.09013495747016199,0.1835924470962553,0.03313064888318565,0.0203593522310257,-0.04844506829977036,0.1316838562488556,-0.01225157082080841,0.009672034531831741,0.008121490478515625,XArbitraryZVertical,0.01234882495048378,0.09230484973346807,0.04637327565054654,0.9945736502393301,0.1824626326560974,-0.03312458842992783,-0.9826546311378479,42699.42019079167,unknown,2,2020-03-09 11:19:04.918 +0100,605441944.2979221,0,44257.75,100.3979
2020-03-09 11:19:05.501 +0100,42700.00192579167,0.1497039794921875,-0.025421142578125,-0.9780731201171875,42699.99690179167,0.09160762730760606,0.182848652219018,0.03372486535660019,0.04411927610635757,-0.07543487101793289,0.1628766655921936,-0.0149044543504715,0.0008970275521278381,0.0004859566688537598,XArbitraryZVertical,0.01259390855737329,0.09195713760304181,0.0471278987239687,0.994567307995042,0.1817280799150467,-0.03371847420930862,-0.982770562171936,42699.42019079167,unknown,2,2020-03-09 11:19:04.918 +0100,605441944.2979221,0,44257.75,100.3979
2020-03-09 11:19:05.511 +0100,42700.01197479167,0.113983154296875,-0.0250701904296875,-0.963775634765625,42700.00695079167,0.09286562902777998,0.181996679780149,0.03440268576419436,0.04303477704524994,-0.07665950059890747,0.1006573289632797,-0.03118327260017395,0.008974965661764145,0.004829108715057373,XArbitraryZVertical,0.0128935256488937,0.09155650987742273,0.04777862017875249,0.9945694163469507,0.1808865368366241,-0.03439589962363243,-0.9829023480415344,42699.42019079167,unknown,2,2020-03-09 11:19:04.918 +0100,605441944.2979221,0,44257.75,100.3979
2020-03-09 11:19:05.522 +0100,42700.02202379167,0.114715576171875,-0.0218963623046875,-0.9604949951171875,42700.01699979167,0.09329293444460245,0.1812203201123425,0.03479156791394917,0.01357142813503742,-0.06936376541852951,-0.0002152258530259132,-0.06613858044147491,0.009714577347040176,0.01925349235534668,XArbitraryZVertical,0.01308601069745672,0.09118192001269783,0.04800353124776855,0.9945903958047994,0.180120974779129,-0.03478454798460007,-0.9830292463302612,42699.42019079167,unknown,2,2020-03-09 11:19:04.918 +0100,605441944.2979221,0,44257.75,100.3979
2020-03-09 11:19:05.532 +0100,42700.03207279167,0.166748046875,-0.03265380859375,-0.9638824462890625,42700.02704879167,0.0931066575801815,0.1805614147649316,0.03481306682920716,-0.002832159865647554,-0.06800416857004166,-0.01987022161483765,-0.06475825607776642,0.0129098929464817,0.02265191078186035,XArbitraryZVertical,0.01312097988376545,0.09085350080358297,0.04790753669837991,0.9946246656685349,0.1794730722904205,-0.0348060354590416,-0.9831469655036926,42699.42019079167,unknown,2,2020-03-09 11:19:04.918 +0100,605441944.2979221,0,44257.75,100.3979
2020-03-09 11:19:05.542 +0100,42700.04212179167,0.1959991455078125,-0.0444183349609375,-0.961029052734375,42700.03709779167,0.09308137707771454,0.1801385234141732,0.03474335840335441,-0.02373078465461731,-0.0193207822740078,0.007100942544639111,-0.0123104453086853,0.002082780003547668,0.01934266090393066,XArbitraryZVertical,0.01309758237220563,0.09064145988403036,0.04788908365540986,0.9946452476702436,0.1790577322244644,-0.03473636880517006,-0.9832251667976379,42699.42019079167,unknown,2,2020-03-09 11:19:04.918 +0100,605441944.2979221,0,44257.75,100.3979
2020-03-09 11:19:05.552 +0100,42700.05217079167,0.2181396484375,-0.0785980224609375,-0.968719482421875,42700.04714679167,0.09334986825810734,0.1801848666879947,0.03423672386671085,-0.09202767908573151,-0.001032072119414806,0.0312882699072361,0.01689191162586212,-0.01018807291984558,0.0222049355506897,XArbitraryZVertical,0.01283230553629632,0.09065489405523602,0.04800035674810128,0.9946420472666985,0.1791064292192459,-0.03423003479838371,-0.9832340478897095,42699.42019079167,unknown,2,2020-03-09 11:19:04.918 +0100,605441944.2979221,0,44257.75,100.3979
2020-03-09 11:19:05.562 +0100,42700.06221979167,0.200653076171875,-0.054718017578125,-0.978363037109375,42700.05719579167,0.09392490839065629,0.1799980590080237,0.03312458870637498,-0.1410836428403854,-0.03395513445138931,0.02948664501309395,0.03920939564704895,-0.04547926783561707,0.01458477973937988,XArbitraryZVertical,0.01225758237411518,0.09054052223679421,0.0482356597340765,0.9946483349636442,0.1789294481277466,-0.03311853110790253,-0.9833043217658997,42699.42019079167,unknown,2,2020-03-09 11:19:04.918 +0100,605441944.2979221,0,44257.75,100.3979
2020-03-09 11:19:05.572 +0100,42700.07226879167,0.151153564453125,-0.0328826904296875,-0.985748291015625,42700.06724479167,0.09419986751385605,0.1797488527983575,0.03166615985135705,-0.1452248841524124,-0.002784978598356247,-0.02710909210145473,0.02195942401885986,-0.02305693551898003,0.005032241344451904,XArbitraryZVertical,0.01152574122932843,0.09038513503979785,0.04830606016830917,0.9946678453560889,0.1786928474903107,-0.03166086971759796,-0.9833953976631165,42699.42019079167,unknown,2,2020-03-09 11:19:04.918 +0100,605441944.2979221,0,44257.75,100.3979
2020-03-09 11:19:05.582 +0100,42700.08231779167,0.1237030029296875,-0.026885986328125,-0.9974517822265625,42700.07729379167,0.09397502594372012,0.179938050295712,0.03031984692566622,-0.1167317181825638,0.04025569930672646,-0.05813891440629959,-0.02773360908031464,-0.002567281946539879,-0.002345800399780273,XArbitraryZVertical,0.01086168563456482,0.09044738402047915,0.04813541071782413,0.9946779182675547,0.1788863688707352,-0.03031520172953606,-0.9834026098251343,42699.42019079167,unknown,2,2020-03-09 11:19:04.918 +0100,605441944.2979221,0,44257.75,100.3979
2020-03-09 11:19:05.592 +0100,42700.09236679167,0.1038665771484375,-0.0137786865234375,-0.998321533203125,42700.08734279167,0.09352167240149314,0.1805373394357287,0.0290400475105158,-0.1202525347471237,0.08894657343626022,-0.07887841761112213,-0.05578030645847321,0.00215018168091774,-0.01411926746368408,XArbitraryZVertical,0.0102312635130954,0.09071403676873095,0.04785602430714909,0.9946738085078836,0.1794825047254562,-0.02903596684336662,-0.9833325743675232,42699.42019079167,unknown,2,2020-03-09 11:19:04.918 +0100,605441944.2979221,0,44257.75,100.3979
2020-03-09 11:19:05.602 +0100,42700.10241579167,0.0956573486328125,-0.0117645263671875,-0.9979400634765625,42700.09739179167,0.09270934405724708,0.1816839849500686,0.02758921245079302,-0.1334215998649597,0.1581205725669861,-0.1407646834850311,-0.07675151526927948,0.01380721479654312,-0.01515507698059082,XArbitraryZVertical,0.009519279127169739,0.09124759162371511,0.04739263900945807,0.9946543221161918,0.1806173324584961,-0.02758571319282055,-0.983166515827179,42699.42019079167,unknown,2,2020-03-09 11:19:04.918 +0100,605441944.2979221,0,44257.75,100.3979
2020-03-09 11:19:05.612 +0100,42700.11246479167,0.1068572998046875,-0.0088653564453125,-1.003799438476562,42700.10743979167,0.09102411298796256,0.1835366400110661,0.02592097551098553,-0.1289798617362976,0.2160581201314926,-0.2558640539646149,-0.08679009974002838,0.01415373384952545,-0.01506602764129639,XArbitraryZVertical,0.008723312711676182,0.0921241579424775,0.04648753964241333,0.9946234067916783,0.1824466437101364,-0.02591807208955288,-0.9828740954399109,42699.42019079167,unknown,2,2020-03-09 11:19:04.918 +0100,605441944.2979221,0,44257.75,100.3979
2020-03-09 11:19:05.622 +0100,42700.12251379167,0.1214599609375,0.046966552734375,-0.983184814453125,42700.11748879167,0.08825973865416274,0.1859919005321041,0.02412533944597847,-0.1266280263662338,0.2740154564380646,-0.363338828086853,-0.07801114022731781,0.0152578204870224,-0.02133220434188843,XArbitraryZVertical,0.00790220434086746,0.09329465695671008,0.04504077768919379,0.9945877594577732,0.1848676055669785,-0.02412299998104572,-0.9824673533439636,42699.42019079167,unknown,2,2020-03-09 11:19:04.918 +0100,605441944.2979221,0,44257.75,100.3979
2020-03-09 11:19:05.632 +0100,42700.13256279167,0.189422607421875,0.044342041015625,-1.0146484375,42700.12753779167,0.08342432606459325,0.1889707079062442,0.02201055407060387,-0.08289669454097748,0.2354479879140854,-0.6024619936943054,-0.06634341180324554,0.06897550076246262,-0.001224696636199951,XArbitraryZVertical,0.007012490229392995,0.09471392866932153,0.04254892378411008,0.9945700436572598,0.1878025233745575,-0.02200877666473389,-0.9819601774215698,42699.42019079167,unknown,2,2020-03-09 11:19:04.918 +0100,605441944.2979221,0,44257.75,100.3979
2020-03-09 11:19:05.642 +0100,42700.14261179167,0.2487030029296875,-0.035369873046875,-0.9984588623046875,42700.13758679167,0.07776460053634507,0.191179308446483,0.02119867050006957,0.1121532320976257,0.1731830239295959,-0.5139896273612976,-0.0005524009466171265,0.06553928554058075,-0.03308826684951782,XArbitraryZVertical,0.006832830361999038,0.09577679175879102,0.03970373253302804,0.9945871511037786,0.1899741590023041,-0.02119708247482777,-0.981560230255127,42699.42019079167,unknown,2,2020-03-09 11:19:04.918 +0100,605441944.2979221,0,44257.75,100.3979
2020-03-09 11:19:05.652 +0100,42700.15266079167,0.335205078125,-0.0833282470703125,-0.9968719482421875,42700.14763579167,0.07416428880915191,0.1921296246235338,0.02239934061535114,0.2211981266736984,0.005308397114276886,-0.1304844170808792,0.05780027806758881,-0.01297223381698132,-0.01710540056228638,XArbitraryZVertical,0.007584360904888002,0.09625846651204804,0.03797387767163745,0.9946027961517871,0.1909018605947495,-0.02239746786653996,-0.9813535809516907,42699.42019079167,unknown,2,2020-03-09 11:19:04.918 +0100,605441944.2979221,0,44257.75,100.3979
2020-03-09 11:19:05.666 +0100,42700.16270979167,0.27716064453125,-0.0617523193359375,-0.970672607421875,42700.15768479167,0.07389883779929821,0.1916429882254383,0.02427180070475395,0.1353503316640854,-0.07334274053573608,0.09614712744951248,0.1447882056236267,-0.05905864387750626,-0.01546859741210938,XArbitraryZVertical,0.008537618626021716,0.09604883877975678,0.03792912706876581,0.9946169493306786,0.1904159635305405,-0.02426941692829132,-0.9814034700393677,42699.42019079167,unknown,2,2020-03-09 11:19:04.918 +0100,605441944.2979221,0,44257.75,100.3979
2020-03-09 11:19:05.672 +0100,42700.17275879167,0.180999755859375,-0.049224853515625,-0.96868896484375,42700.16773379167,0.07430736240180294,0.1908250849944246,0.02519730628362761,0.04113052040338516,-0.06033981218934059,-0.004977124743163586,0.08755087852478027,-0.03655748814344406,0.01086372137069702,XArbitraryZVertical,0.008993908032929734,0.09566038801098965,0.03817264156401507,0.9946410716644888,0.1896088570356369,-0.02519463934004307,-0.9815363883972168,42699.42019079167,unknown,2,2020-03-09 11:19:04.918 +0100,605441944.2979221,0,44257.75,100.3979
2020-03-09 11:19:05.682 +0100,42700.18280779167,0.14569091796875,-0.043182373046875,-0.97381591796875,42700.17778279167,0.07358072958161797,0.1901040267399141,0.02553969520987833,0.06864310801029205,-0.05604919046163559,-0.1021404266357422,-0.007900521159172058,-0.02368775010108948,0.01297527551651001,XArbitraryZVertical,0.009212594035004918,0.09530456148659253,0.03782416546889454,0.9946866070005077,0.188899427652359,-0.02553691901266575,-0.9816643595695496,42699.42019079167,unknown,2,2020-03-09 11:19:04.918 +0100,605441944.2979221,0,44257.75,100.3979
2020-03-09 11:19:05.692 +0100,42700.19285679167,0.1590423583984375,-0.026336669921875,-0.9803619384765625,42700.18783179167,0.07261639523636867,0.189347361492533,0.02638118003753255,0.1385121941566467,-0.06232630461454391,-0.03974911943078041,-0.04246239364147186,-0.01680406183004379,0.007969558238983154,XArbitraryZVertical,0.009691239423477825,0.09493846170644676,0.03738059800215571,0.9947338151109232,0.1881524622440338,-0.02637811936438084,-0.9817855358123779,42699.42019079167,unknown,2,2020-03-09 11:19:04.918 +0100,605441944.2979221,0,44257.75,100.3979
2020-03-09 11:19:05.702 +0100,42700.20290579167,0.1819305419921875,-0.0176239013671875,-0.9718475341796875,42700.19788079167,0.07231030725763622,0.1885348559814163,0.02810104492899838,0.2196139693260193,-0.07403889298439026,0.03699492663145065,-0.02830444276332855,0.001760881394147873,0.001530051231384277,XArbitraryZVertical,0.01057640805557722,0.09456270081323105,0.03730487741553012,0.9947633743525984,0.1873459219932556,-0.02809734642505646,-0.9818920493125916,42699.42019079167,unknown,2,2020-03-09 11:19:04.918 +0100,605441944.2979221,0,44257.75,100.3979
2020-03-09 11:19:05.712 +0100,42700.21295479167,0.2004547119140625,-0.0284271240234375,-0.9779205322265625,42700.20792979167,0.07215830816835865,0.1875122075004707,0.03066544913361105,0.3148540556430817,-0.1100384220480919,0.02694924920797348,-0.004397943615913391,0.01303695328533649,0.01016151905059814,XArbitraryZVertical,0.01187829529458956,0.09409751018772666,0.03734312724255268,0.9947914257735179,0.186327651143074,-0.03066064231097698,-0.9820091128349304,42699.42019079167,unknown,2,2020-03-09 11:19:04.918 +0100,605441944.2979221,0,44257.75,100.3979
2020-03-09 11:19:05.722 +0100,42700.22300279167,0.2154998779296875,-0.0420989990234375,-0.9774169921875,42700.21797879167,0.07165979301989554,0.1862982481338373,0.03383705410601949,0.3461355566978455,-0.13204225897789,0.002476929686963558,0.01533739268779755,0.005403704941272736,0.004213452339172363,XArbitraryZVertical,0.01350205791435822,0.0935448881641063,0.03723441526160595,0.99482683634048,0.1851164549589157,-0.03383059799671173,-0.9821341037750244,42699.42019079167,unknown,2,2020-03-09 11:19:04.918 +0100,605441944.2979221,0,44257.75,100.3979
2020-03-09 11:19:05.732 +0100,42700.23305179167,0.2432708740234375,-0.0474853515625,-0.983856201171875,42700.22802779167,0.07104162061962353,0.1850910692105786,0.03701166541545161,0.2892856299877167,-0.1290267109870911,-0.001721509732306004,0.03158898651599884,-0.005095534026622772,0.004829287528991699,XArbitraryZVertical,0.01513261743523134,0.09299374163818135,0.03706433034763261,0.9948614127146548,0.1839100122451782,-0.03700321540236473,-0.9822463393211365,42699.42019079167,unknown,2,2020-03-09 11:19:04.918 +0100,605441944.2979221,0,44257.75,100.3979
2020-03-09 11:19:05.743 +0100,42700.24310079167,0.2726287841796875,-0.048919677734375,-0.9892730712890625,42700.23807679167,0.07063084304410622,0.1841071136943771,0.03939041373229154,0.169522225856781,-0.1224311292171478,0.005919099785387516,0.0603431910276413,-0.008104860782623291,-0.001518785953521729,XArbitraryZVertical,0.01635330671698749,0.09254088370741993,0.03696097985466081,0.9948882271018369,0.1829268038272858,-0.03938022628426552,-0.9823375344276428,42699.42019079167,unknown,2,2020-03-09 11:19:04.918 +0100,605441944.2979221,0,44257.75,100.3979
2020-03-09 11:19:05.752 +0100,42700.25314979167,0.279693603515625,-0.0547332763671875,-0.9839630126953125,42700.24812579167,0.07044299804315009,0.1830895041793152,0.04050364995216056,0.05133126676082611,-0.1177015751600266,-0.001283853314816952,0.09070894122123718,-0.008426833897829056,-0.006793737411499023,XArbitraryZVertical,0.01693462395607706,0.09205163320979255,0.0369096620833796,0.9949257484184808,0.1819189786911011,-0.04049257561564445,-0.982479453086853,42699.42019079167,unknown,2,2020-03-09 11:19:04.918 +0100,605441944.2979221,0,44257.75,100.3979
2020-03-09 11:19:05.763 +0100,42700.26319879167,0.2622222900390625,-0.04541015625,-0.9849090576171875,42700.25817479167,0.07035076119907836,0.1819717179574973,0.04063123268549066,-0.02315521612763405,-0.1044667363166809,-0.01365263853222132,0.09887301921844482,-0.01411295682191849,-0.001286029815673828,XArbitraryZVertical,0.01702294893580646,0.09149689728254906,0.03686005152822856,0.9949772326515225,0.1808197200298309,-0.04062005504965782,-0.9826771020889282,42699.42019079167,unknown,2,2020-03-09 11:19:04.918 +0100,605441944.2979221,0,44257.75,100.3979
2020-03-09 11:19:05.773 +0100,42700.27324779167,0.2327423095703125,-0.014404296875,-0.991424560546875,42700.26822379167,0.07024131306696112,0.1809979865552492,0.04021459356675876,-0.04632091522216797,-0.08005817979574203,-0.02209106460213661,0.08235567808151245,-0.005206141620874405,-0.002039909362792969,XArbitraryZVertical,0.01683856290000041,0.09100462754759679,0.0367786420716776,0.9950285582904635,0.1798658072948456,-0.0402037538588047,-0.9828692674636841,42699.42019079167,unknown,2,2020-03-09 11:19:04.918 +0100,605441944.2979221,0,44257.75,100.3979
2020-03-09 11:19:05.783 +0100,42700.28329679167,0.2100830078125,0.0199432373046875,-0.9901123046875,42700.27827279167,0.0700642231904149,0.1802949789505539,0.03997367428102556,0.02529788017272949,-0.05592115223407745,-0.01451410539448261,0.05356496572494507,0.02555898576974869,-0.008419692516326904,XArbitraryZVertical,0.01673963577010896,0.09064938516890683,0.03667386010365534,0.9950665662250033,0.1791765242815018,-0.03996302932500839,-0.9830049276351929,42699.42019079167,unknown,2,2020-03-09 11:19:04.918 +0100,605441944.2979221,0,44257.75,100.3979
2020-03-09 11:19:05.793 +0100,42700.29334579167,0.1923370361328125,0.0305633544921875,-0.994659423828125,42700.28832179167,0.06985832128973277,0.1797962017970279,0.04087604055891,0.1684468537569046,-0.0478665716946125,0.007187995128333569,0.03140251338481903,0.06080815568566322,-0.00705409049987793,XArbitraryZVertical,0.01720711190704056,0.09041436917180914,0.03660739386097166,0.9950824370993584,0.1786796897649765,-0.04086465761065483,-0.9830583333969116,42699.42019079167,unknown,2,2020-03-09 11:19:04.918 +0100,605441944.2979221,0,44257.75,100.3979
2020-03-09 11:19:05.803 +0100,42700.30339479167,0.18365478515625,0.0056304931640625,-0.975128173828125,42700.29837079167,0.06962706420302812,0.1794288466720085,0.04313810385110783,0.2757786214351654,-0.03595451638102531,0.02481146529316902,0.01403461396694183,0.07368835806846619,-0.01162910461425781,XArbitraryZVertical,0.01834989636997574,0.09026668629867898,0.03658960185755291,0.9950759633759694,0.1783015877008438,-0.0431247241795063,-0.9830304384231567,42699.42019079167,unknown,2,2020-03-09 11:19:04.918 +0100,605441944.2979221,0,44257.75,100.3979
2020-03-09 11:19:05.813 +0100,42700.31344379167,0.18994140625,-0.0363006591796875,-0.957611083984375,42700.30841979167,0.06935474926873778,0.1792257740936212,0.04588029960621338,0.250046581029892,-0.01970291696488857,0.02078306674957275,0.005573734641075134,0.05149498954415321,0.007818281650543213,XArbitraryZVertical,0.01973041971638142,0.09020775255746059,0.0365737947835122,0.9950554993749335,0.1780802011489868,-0.04586420580744743,-0.982946515083313,42699.42019079167,unknown,2,2020-03-09 11:19:04.918 +0100,605441944.2979221,0,44257.75,100.3979
2020-03-09 11:19:05.823 +0100,42700.32349279167,0.2032318115234375,-0.0657196044921875,-0.9464569091796875,42700.31846879167,0.06928803047120115,0.1793704362013841,0.04751084483469446,0.05620814114809036,0.02319182083010674,0.02465743198990822,0.01173174381256104,0.01119261234998703,0.02523469924926758,XArbitraryZVertical,0.02054213241224162,0.09030548013658937,0.03661432660593088,0.9950287323442177,0.1782088279724121,-0.04749297350645065,-0.9828459024429321,42699.42019079167,unknown,2,2020-03-09 11:19:04.918 +0100,605441944.2979221,0,44257.75,100.3979
2020-03-09 11:19:05.833 +0100,42700.33354179167,0.2187042236328125,-0.064239501953125,-0.9407196044921875,42700.32851779167,0.06966225704126849,0.1800662479807595,0.04697120279684967,-0.1659020781517029,0.08383853733539581,0.03063017129898071,0.02433374524116516,-0.01876537501811981,0.0362897515296936,XArbitraryZVertical,0.02024391963929204,0.0906467047822071,0.03678362882591654,0.9949976063827659,0.1788972169160843,-0.04695393145084381,-0.9827467203140259,42699.42019079167,unknown,2,2020-03-09 11:19:04.918 +0100,605441944.2979221,0,44257.75,100.3979
2020-03-09 11:19:05.843 +0100,42700.34359079167,0.2337493896484375,-0.02655029296875,-0.9461212158203125,42700.33856679167,0.0703833430474531,0.1811488490252921,0.0447425636324443,-0.2773950397968292,0.09874424338340759,0.02973508089780807,0.03872393071651459,-0.01951158046722412,0.04193329811096191,XArbitraryZVertical,0.01908227373130533,0.09115584485026065,0.03705349450333134,0.9949640209313232,0.1799794435501099,-0.0447276383638382,-0.9826529622077942,42699.42019079167,unknown,2,2020-03-09 11:19:04.918 +0100,605441944.2979221,0,44257.75,100.3979
2020-03-09 11:19:05.853 +0100,42700.35363979167,0.2391815185546875,0.034576416015625,-0.95654296875,42700.34861479167,0.07116203214015432,0.1822441900453613,0.04216602489925077,-0.2391068786382675,0.09271305799484253,0.03434345126152039,0.05267257988452911,0.01560351252555847,0.03644400835037231,XArbitraryZVertical,0.0177443728632331,0.09166507922726043,0.0373351685422461,0.9949314327362165,0.1810759603977203,-0.04215352982282639,-0.9825652837753296,42699.42019079167,unknown,2,2020-03-09 11:19:04.918 +0100,605441944.2979221,0,44257.75,100.3979
2020-03-09 11:19:05.863 +0100,42700.36368879167,0.233642578125,0.0630950927734375,-0.966552734375,42700.35866379167,0.07197087787482492,0.1830708310827147,0.04051966239011946,-0.08431756496429443,0.05589964985847473,0.0704367384314537,0.05728018283843994,0.07508525252342224,0.02593916654586792,XArbitraryZVertical,0.01687261458030503,0.09205552039217141,0.03767028010375979,0.99489800004106,0.1819005161523819,-0.04050857573747635,-0.9824821949005127,42699.42019079167,unknown,2,2020-03-09 11:19:04.918 +0100,605441944.2979221,0,44257.75,100.3979
2020-03-09 11:19:05.873 +0100,42700.37373779167,0.2243499755859375,0.0523834228515625,-0.9663238525390625,42700.36871279167,0.07288928303290919,0.1834165162297881,0.04073271027539308,0.1147634088993073,0.006770324893295765,0.1205585896968842,0.05140320956707001,0.1038167998194695,0.01585793495178223,XArbitraryZVertical,0.01692974219079235,0.0922388863161899,0.0381397150004327,0.994862104817923,0.1822385489940643,-0.04072144627571106,-0.982410728931427,42699.42019079167,unknown,2,2020-03-09 11:19:04.918 +0100,605441944.2979221,0,44257.75,100.3979
2020-03-09 11:19:05.883 +0100,42700.38378679167,0.2072906494140625,0.01141357421875,-0.95709228515625,42700.37876179167,0.07387628072212264,0.1832484365675369,0.04269967770322083,0.2433448284864426,-0.03351078554987907,0.1457161456346512,0.04229068756103516,0.09507039189338684,0.0160367488861084,XArbitraryZVertical,0.01786601374317919,0.09219790829415117,0.03871840475268604,0.9948271640870869,0.1820584833621979,-0.04268670454621315,-0.9823607206344604,42699.42019079167,unknown,2,2020-03-09 11:19:04.918 +0100,605441944.2979221,0,44257.75,100.3979
2020-03-09 11:19:05.893 +0100,42700.39383579167,0.19482421875,-0.0375518798828125,-0.9351348876953125,42700.38881079167,0.07495246051802984,0.1827889965468491,0.04527913430063378,0.222197100520134,-0.04241333156824112,0.1616140604019165,0.02570332586765289,0.05667751282453537,0.02524036169052124,XArbitraryZVertical,0.01910864793942174,0.09202450451647722,0.03936615378016303,0.9947946744901445,0.1815865039825439,-0.04526366293430328,-0.982332706451416,42699.42019079167,unknown,2,2020-03-09 11:19:04.918 +0100,605441944.2979221,0,44257.75,100.3979
2020-03-09 11:19:05.903 +0100,42700.40388479167,0.189422607421875,-0.0670013427734375,-0.9149932861328125,42700.39885979167,0.07636757445041122,0.1823470185831456,0.04716345927412874,0.09436110407114029,-0.04014218971133232,0.1827808618545532,0.01368691027164459,0.009594373404979706,0.0471922755241394,XArbitraryZVertical,0.01998977586479962,0.09185199382595313,0.04015067666374321,0.9947619491811365,0.1811365336179733,-0.04714597761631012,-0.9823272228240967,42699.42019079167,unknown,2,2020-03-09 11:19:04.918 +0100,605441944.2979221,0,44257.75,100.3979
2020-03-09 11:19:05.913 +0100,42700.41393379167,0.191375732421875,-0.0706024169921875,-0.9056854248046875,42700.40890879167,0.0781809013823199,0.1819009734618066,0.04775305296626344,-0.04650172591209412,-0.04411984235048294,0.1879358440637589,0.008728593587875366,-0.01926616951823235,0.06738710403442383,XArbitraryZVertical,0.02020893961572016,0.09165906141786981,0.04107460609132284,0.9947376541520011,0.1806932836771011,-0.04773490503430367,-0.9823804497718811,42699.42019079167,unknown,2,2020-03-09 11:19:04.918 +0100,605441944.2979221,0,44257.75,100.3979
2020-03-09 11:19:05.923 +0100,42700.42398279167,0.2016754150390625,-0.052703857421875,-0.9008026123046875,42700.41895779167,0.08016667097860233,0.1813199679586499,0.04715454900548136,-0.1387277990579605,-0.06748908013105392,0.1786107867956161,0.01124739646911621,-0.02346507459878922,0.07682770490646362,XArbitraryZVertical,0.01983241515065155,0.0913788156043846,0.04202961781328016,0.994731155073769,0.1801276057958603,-0.0471370741724968,-0.9825131893157959,42699.42019079167,unknown,2,2020-03-09 11:19:04.918 +0100,605441944.2979221,0,44257.75,100.3979
2020-03-09 11:19:05.933 +0100,42700.43403179167,0.2152862548828125,-0.0294036865234375,-0.915191650390625,42700.42900679167,0.08220661788208246,0.1805257429104851,0.04581217309808649,-0.1857381016016006,-0.08742675185203552,0.1746537834405899,0.02231627702713013,-0.006907448172569275,0.08191460371017456,XArbitraryZVertical,0.01908852434264522,0.09097793086302558,0.04297655783922487,0.9947419906889047,0.1793584227561951,-0.04579614847898483,-0.9827172756195068,42699.42019079167,unknown,2,2020-03-09 11:19:04.918 +0100,605441944.2979221,0,44257.75,100.3979
2020-03-09 11:19:05.944 +0100,42700.44408079167,0.2327423095703125,-0.01629638671875,-0.9299774169921875,42700.43905579167,0.08429538056440522,0.1795671324815127,0.04414736969470271,-0.1905613392591476,-0.1005942150950432,0.1807947754859924,0.03685586154460907,0.01472959667444229,0.06777071952819824,XArbitraryZVertical,0.01818641893793358,0.09048779598255377,0.04393255010460796,0.994761846418205,0.1784296631813049,-0.0441330298781395,-0.982962429523468,42699.42019079167,unknown,2,2020-03-09 11:19:04.918 +0100,605441944.2979221,0,44257.75,100.3979
2020-03-09 11:19:05.953 +0100,42700.45412979167,0.24169921875,0.0028839111328125,-0.9582366943359375,42700.44910479167,0.08643836010163999,0.1784651403995387,0.04256010449895161,-0.1728871911764145,-0.1097624599933624,0.184298187494278,0.05538304150104523,0.02625111863017082,0.05324864387512207,XArbitraryZVertical,0.01732462521064925,0.08992651827529735,0.04491852596788545,0.9947841099378449,0.17735855281353,-0.04254725575447083,-0.9832261800765991,42699.42019079167,unknown,2,2020-03-09 11:19:04.918 +0100,605441944.2979221,0,44257.75,100.3979
2020-03-09 11:19:05.964 +0100,42700.46417879167,0.2319793701171875,0.021148681640625,-0.9752044677734375,42700.45915379167,0.08852396890601882,0.1773175600451815,0.04119664412096982,-0.1478681266307831,-0.1052571833133698,0.1814587414264679,0.06545834243297577,0.04406914114952087,0.02524846792221069,XArbitraryZVertical,0.01657891219217037,0.08934498089524802,0.04588631541715955,0.9948049628387643,0.1762401759624481,-0.04118499159812927,-0.983485221862793,42699.42019079167,unknown,2,2020-03-09 11:19:04.918 +0100,605441944.2979221,0,44257.75,100.3979
2020-03-09 11:19:05.974 +0100,42700.47422679167,0.2058868408203125,0.019073486328125,-0.974273681640625,42700.46920279167,0.09064597725619651,0.1763758512996134,0.04011978542733607,-0.1217496246099472,-0.0696026086807251,0.1981835216283798,0.05665706098079681,0.06125793978571892,0.008489310741424561,XArbitraryZVertical,0.01597048869571993,0.08887078833652759,0.04688714290917809,0.9948107853884162,0.1753216236829758,-0.04010902345180511,-0.9836938381195068,42699.42019079167,unknown,2,2020-03-09 11:19:04.918 +0100,605441944.2979221,0,44257.75,100.3979
2020-03-09 11:19:05.984 +0100,42700.48427475,0.1817626953125,0.000579833984375,-0.958740234375,42700.47925075,0.092866840653755,0.1758756699864683,0.03925499998964191,-0.1283151209354401,-0.01787896268069744,0.2027175575494766,0.03105057775974274,0.05831863731145859,0.009541451930999756,XArbitraryZVertical,0.01545358762413872,0.0886204472436998,0.04795028168862329,0.9947906272166274,0.1748355776071548,-0.03924492001533508,-0.9838151931762695,42699.42019079167,unknown,2,2020-03-09 11:19:04.918 +0100,605441944.2979221,0,44257.75,100.3979
2020-03-09 11:19:05.994 +0100,42700.49432375,0.17169189453125,-0.0267791748046875,-0.932159423828125,42700.48929975,0.0951070438540952,0.1759328767274576,0.03810854028909581,-0.1889728009700775,0.04049606248736382,0.1947674453258514,0.006862372159957886,0.03867937624454498,0.02510857582092285,XArbitraryZVertical,0.01478260312647187,0.08863998883633305,0.04901518861337912,0.994747178178271,0.1748996078968048,-0.03809931874275208,-0.9838488698005676,42699.42019079167,unknown,2,2020-03-09 11:19:04.918 +0100,605441944.2979221,0,44257.75,100.3979
2020-03-09 11:19:06.004 +0100,42700.50437275,0.165679931640625,-0.049957275390625,-0.9047698974609375,42700.49934875,0.09743599631996888,0.1765932073201478,0.036038920392745,-0.3084803223609924,0.09901902824640274,0.188465341925621,-0.003871574997901917,0.009252171963453293,0.05164915323257446,XArbitraryZVertical,0.01363334689681025,0.08893705850577605,0.05008816615937305,0.9946835332735634,0.175562709569931,-0.03603111952543259,-0.9838086366653442,42699.42019079167,unknown,2,2020-03-09 11:19:04.918 +0100,605441944.2979221,0,44257.75,100.3979
2020-03-09 11:19:06.014 +0100,42700.51442175001,0.17181396484375,-0.051910400390625,-0.885650634765625,42700.50939775,0.09981568097911586,0.1777641494025961,0.03282580982765219,-0.4037635326385498,0.1389288902282715,0.1611552238464355,-0.01105496287345886,-0.01713714748620987,0.07894134521484375,XArbitraryZVertical,0.01189938909794421,0.08945815746588397,0.05113852456223254,0.9946056235107733,0.176734134554863,-0.03281991556286812,-0.983711302280426,42699.42019079167,unknown,2,2020-03-09 11:19:04.918 +0100,605441944.2979221,0,44257.75,100.3979
2020-03-09 11:19:06.024 +0100,42700.52447075,0.1851348876953125,-0.0309600830078125,-0.8833770751953125,42700.51944675,0.1019557928002437,0.1792875724520762,0.02875593565658623,-0.465736597776413,0.1673070043325424,0.112464651465416,-0.006441667675971985,-0.0231582336127758,0.09791350364685059,XArbitraryZVertical,0.009739854146161277,0.09012791595757419,0.05203143029720032,0.9945222849427354,0.1782548874616623,-0.02875197306275368,-0.9835641980171204,42699.42019079167,unknown,2,2020-03-09 11:19:04.918 +0100,605441944.2979221,0,44257.75,100.3979
2020-03-09 11:19:06.034 +0100,42700.53451975,0.2019195556640625,-0.01177978515625,-0.871612548828125,42700.52949575,0.1037039334442741,0.1809874880642762,0.02397707660125725,-0.5302608609199524,0.1694117784500122,0.06041772663593292,0.00518488883972168,-0.006985139101743698,0.1000065207481384,XArbitraryZVertical,0.007239710626130489,0.09086113613942945,0.05269488174955307,0.9944420680272249,0.1799492835998535,-0.02397477999329567,-0.9833836555480957,42699.42019079167,unknown,2,2020-03-09 11:19:04.918 +0100,605441944.2979221,0,44257.75,100.3979
2020-03-09 11:19:06.044 +0100,42700.54456875,0.2144622802734375,-0.00921630859375,-0.8737640380859375,42700.53954475001,0.1051479836182778,0.1826955957635626,0.01860079044869006,-0.5634641051292419,0.1654391437768936,0.03366733714938164,0.02026928961277008,0.006820077076554298,0.1115748286247253,XArbitraryZVertical,0.004455263145942967,0.09157751992397858,0.05317562135651167,0.9943671693202338,0.1816495358943939,-0.01859971694648266,-0.9831874370574951,42699.42019079167,unknown,2,2020-03-09 11:19:04.918 +0100,605441944.2979221,0,44257.75,100.3979
2020-03-09 11:19:06.054 +0100,42700.55461775,0.2163543701171875,-0.00982666015625,-0.8480377197265625,42700.54959375,0.1063336002183302,0.1842869327006076,0.01296885476470117,-0.5728627443313599,0.1459065079689026,-0.007707597687840462,0.03123137354850769,0.003752301447093487,0.1092203855514526,XArbitraryZVertical,0.001558113540480353,0.09222431369055958,0.05351101026753254,0.9942981536459096,0.1832301765680313,-0.01296849083155394,-0.9829844832420349,42699.42019079167,unknown,2,2020-03-09 11:19:04.918 +0100,605441944.2979221,0,44257.75,100.3979
2020-03-09 11:19:06.064 +0100,42700.56466675,0.2007293701171875,-0.0255889892578125,-0.8502960205078125,42700.55964275001,0.1070767788820507,0.1855716572147268,0.007236164343922828,-0.5743680000305176,0.1129458993673325,-0.05908583104610443,0.03185001015663147,-0.002590461168438196,0.1347674131393433,XArbitraryZVertical,-0.0013607288072485,0.09271217630001953,0.05361702974303807,0.9942472813223631,0.1845035701990128,-0.007236101198941469,-0.9828051924705505,42699.42019079167,unknown,2,2020-03-09 11:19:04.918 +0100,605441944.2979221,0,44257.75,100.3979
2020-03-09 11:19:06.074 +0100,42700.57471575,0.1810302734375,-0.029815673828125,-0.875640869140625,42700.56969175,0.1073699920443692,0.186643044127443,0.001393139684418523,-0.5825220346450806,0.1017031371593475,-0.09136557579040527,0.01516745984554291,-0.02419577911496162,0.1323356628417969,XArbitraryZVertical,-0.004307754493668551,0.09308907351222047,0.05349053391216142,0.9942104715958588,0.1855611056089401,-0.001393139245919883,-0.9826317429542542,42699.42019079167,unknown,2,2020-03-09 11:19:04.918 +0100,605441944.2979221,0,44257.75,100.3979
2020-03-09 11:19:06.085 +0100,42700.58476475,0.171173095703125,-0.0047760009765625,-0.8778533935546875,42700.57974075,0.1076187385549267,0.18763952323279,-0.00466952502951636,-0.6161547899246216,0.09308701753616333,-0.07961331307888031,-0.005508869886398315,-0.03448513895273209,0.1067956686019897,XArbitraryZVertical,-0.007359662527844276,0.09342132494753901,0.05332832340797007,0.9941701310870398,0.1865383386611938,0.004669507965445518,-0.9824365973472595,42699.42019079167,unknown,2,2020-03-09 11:19:04.918 +0100,605441944.2979221,0,44257.75,100.3979
2020-03-09 11:19:06.094 +0100,42700.59481375,0.157073974609375,0.011749267578125,-0.8908538818359375,42700.58978975,0.1082111541404057,0.1884044490864825,-0.01109077509918207,-0.6573728322982788,0.05575176328420639,-0.04184272885322571,-0.0161079466342926,-0.01586653105914593,0.1043904423713684,XArbitraryZVertical,-0.01059946376539543,0.09362531201694939,0.0533177327139427,0.9941222933120937,0.1872802972793579,0.01109054777771235,-0.9822438955307007,42699.42019079167,unknown,2,2020-03-09 11:19:04.918 +0100,605441944.2979221,0,44257.75,100.3979
2020-03-09 11:19:06.104 +0100,42700.60486275001,0.1380767822265625,0.0149688720703125,-0.9020843505859375,42700.59983875,0.1091096312792606,0.1888258721992594,-0.01758754073425228,-0.641288161277771,0.02574752271175385,-0.03449507057666779,-0.0306035578250885,-0.005837380886077881,0.09121942520141602,XArbitraryZVertical,-0.01388175433103032,0.09365149031146391,0.05345505254594439,0.9940719328530825,0.1876767426729202,0.01758663356304169,-0.9820733666419983,42699.42019079167,unknown,2,2020-03-09 11:19:04.918 +0100,605441944.2979221,0,44257.75,100.3979
2020-03-09 11:19:06.114 +0100,42700.61491175,0.1355133056640625,0.0028533935546875,-0.8681488037109375,42700.60988675,0.1096918835557219,0.1889077238297005,-0.02380406243964505,-0.5991508960723877,-0.01209743227809668,-0.08942479640245438,-0.04965692758560181,-0.008832976222038269,0.07984727621078491,XArbitraryZVertical,-0.01700063482113923,0.09351546628817808,0.05344942564736815,0.9940367155107326,0.1877329647541046,0.02380181476473808,-0.9819316864013672,42699.42019079167,unknown,2,2020-03-09 11:19:04.918 +0100,605441944.2979221,0,44257.75,100.3979
2020-03-09 11:19:06.124 +0100,42700.62496075,0.1368560791015625,-0.0093231201171875,-0.848052978515625,42700.61993575,0.1095870010918611,0.1884756376897607,-0.02985699494579654,-0.5861901044845581,-0.07192321121692657,-0.1552112698554993,-0.05176573991775513,-0.02699923329055309,0.1137043237686157,XArbitraryZVertical,-0.01999223084101788,0.09313279450412137,0.05311442496332576,0.9940348617473551,0.1872782409191132,0.02985255979001522,-0.981853187084198,42699.42019079167,unknown,2,2020-03-09 11:19:04.918 +0100,605441944.2979221,0,44257.75,100.3979
2020-03-09 11:19:06.134 +0100,42700.63500975,0.1436767578125,-0.0218353271484375,-0.8340911865234375,42700.62998475,0.1088479270675283,0.1874239431978194,-0.03621008785900769,-0.6356308460235596,-0.1261001080274582,-0.2248393446207047,-0.04935115575790405,-0.04552539438009262,0.1337903738021851,XArbitraryZVertical,-0.02308730073450754,0.0924405267951415,0.05245797032467158,0.9940672752409881,0.1862064301967621,0.03620217368006706,-0.9818434715270996,42699.42019079167,unknown,2,2020-03-09 11:19:04.918 +0100,605441944.2979221,0,44257.75,100.3979
2020-03-09 11:19:06.144 +0100,42700.64505875,0.1551513671875,-0.028411865234375,-0.825103759765625,42700.64003375,0.1075178988589825,0.1859421561378696,-0.04342621002944872,-0.7276688814163208,-0.1609651446342468,-0.3002462089061737,-0.04102222621440887,-0.06524801254272461,0.1477447152137756,XArbitraryZVertical,-0.02657365495131699,0.09151964999716339,0.05147567766646602,0.9941168104963769,0.1846982389688492,0.04341256245970726,-0.9818359613418579,42699.42019079167,unknown,2,2020-03-09 11:19:04.918 +0100,605441944.2979221,0,44257.75,100.3979
2020-03-09 11:19:06.154 +0100,42700.65510775,0.153717041015625,-0.0413360595703125,-0.9101104736328125,42700.65008275001,0.1056385167878407,0.1840063060025619,-0.05204169277390178,-0.8936502933502197,-0.1971234679222107,-0.3773564100265503,-0.02757136523723602,-0.08043022453784943,0.1566837430000305,XArbitraryZVertical,-0.03072052918663056,0.09034643069660818,0.05016660064025266,0.9941715378542735,0.1827219873666763,0.05201820656657219,-0.9817875623703003,42699.42019079167,unknown,2,2020-03-09 11:19:04.918 +0100,605441944.2979221,0,44257.75,100.3979
2020-03-09 11:19:06.168 +0100,42700.66515675,0.1436920166015625,-0.02783203125,-0.89508056640625,42700.66013175,0.1034960624298959,0.1820555402879428,-0.06216806607999882,-0.9972347617149353,-0.1635362058877945,-0.4005448222160339,-0.02698545157909393,-0.1034642830491066,0.07146316766738892,XArbitraryZVertical,-0.0356085614815294,0.08913567394413266,0.04866454040342121,0.9941923915377675,0.1807017624378204,0.06212802976369858,-0.9815737009048462,42699.42019079167,unknown,2,2020-03-09 11:19:04.918 +0100,605441944.2979221,0,44257.75,100.3979
2020-03-09 11:19:06.175 +0100,42700.67520575001,0.1519775390625,0.0369110107421875,-0.91204833984375,42700.67018075,0.1014226787385821,0.1801747524019687,-0.0730079968498869,-1.051072239875793,-0.1948397755622864,-0.3896640837192535,-0.03503277897834778,-0.1007754132151604,0.08611100912094116,XArbitraryZVertical,-0.04085845174439227,0.08794759967346648,0.04717126977631116,0.994168318774454,0.1787241250276566,0.07294315844774246,-0.9811916351318359,42699.42019079167,unknown,2,2020-03-09 11:19:04.918 +0100,605441944.2979221,0,44257.75,100.3979
2020-03-09 11:19:06.185 +0100,42700.68525475,0.15643310546875,0.0561981201171875,-0.941375732421875,42700.68022975,0.09961655769896814,0.1779127304656929,-0.08405625813198983,-1.041161060333252,-0.219509169459343,-0.3585223853588104,-0.02437388896942139,-0.04704654961824417,0.0686919093132019,XArbitraryZVertical,-0.04621691430382922,0.08656696750498602,0.04581902318873392,0.9941180588259427,0.1763508021831512,0.08395730704069138,-0.9807403087615967,42699.42019079167,unknown,2,2020-03-09 11:19:04.918 +0100,605441944.2979221,0,44257.75,100.3979
2020-03-09 11:19:06.195 +0100,42700.69530375001,0.1584930419921875,0.063323974609375,-0.930328369140625,42700.69027875,0.09778125983176837,0.1753873333319916,-0.09453336328812954,-0.9473641514778137,-0.2576188147068024,-0.3732321262359619,-0.01727795600891113,-0.03819479048252106,0.03888678550720215,XArbitraryZVertical,-0.05128670190963867,0.08507871901035188,0.04449579729978631,0.9940580384543649,0.1737104505300522,0.09439262747764587,-0.9802625775337219,42699.42019079167,unknown,2,2020-03-09 11:19:04.918 +0100,605441944.2979221,0,44257.75,100.3979
2020-03-09 11:19:06.205 +0100,42700.70535275,0.1656341552734375,0.067962646484375,-0.89239501953125,42700.70032775,0.09539283575389382,0.1721210517231591,-0.1041651084293638,-0.8603531122207642,-0.3517250418663025,-0.4238002300262451,-0.01185166835784912,-0.04065319150686264,0.04955506324768066,XArbitraryZVertical,-0.05589996728087718,0.0832672649166111,0.04296786398089383,0.9940298480644782,0.1703440994024277,0.1039768382906914,-0.9798834919929504,42699.42019079167,unknown,2,2020-03-09 11:19:04.918 +0100,605441944.2979221,0,44257.75,100.3979
2020-03-09 11:19:06.215 +0100,42700.71540175,0.1664581298828125,0.0641021728515625,-0.89239501953125,42700.71037675,0.09231542819649552,0.167683942247595,-0.1129046680715217,-0.7491390705108643,-0.4704075455665588,-0.4748520851135254,-0.0002030134201049805,-0.04470264911651611,0.08730119466781616,XArbitraryZVertical,-0.06002217558004337,0.08092706946532489,0.04118601408748775,0.9940582118840317,0.1658365875482559,0.1126649454236031,-0.9796962738037109,42699.42019079167,unknown,2,2020-03-09 11:19:04.918 +0100,605441944.2979221,0,44257.75,100.3979
2020-03-09 11:19:06.225 +0100,42700.72544975,0.144134521484375,0.0302581787109375,-0.9737396240234375,42700.72042575001,0.08826428227813674,0.1622134535063117,-0.1206728170696669,-0.6186921000480652,-0.5042281150817871,-0.5712779760360718,0.006129086017608643,-0.05627833306789398,0.08730047941207886,XArbitraryZVertical,-0.06361088947924684,0.07814011631972277,0.03901216776206964,0.9941457384800287,0.1603285223245621,0.1203801557421684,-0.9796955585479736,42699.42019079167,unknown,2,2020-03-09 11:19:04.918 +0100,605441944.2979221,0,44257.75,100.3979
2020-03-09 11:19:06.235 +0100,42700.73549875,0.1250152587890625,0.0341033935546875,-0.9433441162109375,42700.73047475,0.08326561374118882,0.1562581194089006,-0.1270745176361822,-0.5222111940383911,-0.5666449666023254,-0.6003639101982117,-0.01023419201374054,-0.09647499024868011,0.006111979484558105,XArbitraryZVertical,-0.06648790668933155,0.07518998581930481,0.03645866223601273,0.9942819256023164,0.1543682068586349,0.1267327964305878,-0.9798516631126404,42699.42019079167,unknown,2,2020-03-09 11:19:04.918 +0100,605441944.2979221,0,44257.75,100.3979
2020-03-09 11:19:06.245 +0100,42700.74554775,0.107025146484375,0.0284271240234375,-0.93914794921875,42700.74052375001,0.07790145660067446,0.1495561495593443,-0.1338600811794213,-0.6560441255569458,-0.6231039762496948,-0.6610384583473206,-0.0226515531539917,-0.09935769438743591,0.03664708137512207,XArbitraryZVertical,-0.06954529535449415,0.07188750754468071,0.03375239930378175,0.9944125461330909,0.1476663202047348,0.13346067070961,-0.9799912571907043,42699.42019079167,unknown,2,2020-03-09 11:19:04.918 +0100,605441944.2979221,0,44257.75,100.3979
2020-03-09 11:19:06.255 +0100,42700.75559675,0.1097412109375,0.0218505859375,-0.9467620849609375,42700.75057275,0.07176750727966491,0.1424889540300865,-0.1417553287095083,-0.7171136140823364,-0.608715295791626,-0.7693552374839783,-0.033558189868927,-0.1128543615341187,0.04078876972198486,XArbitraryZVertical,-0.07314060654765107,0.06842554879067368,0.03065729177223986,0.9944991177571111,0.140582874417305,0.1412810534238815,-0.9799367785453796,42699.42019079167,unknown,2,2020-03-09 11:19:04.918 +0100,605441944.2979221,0,44257.75,100.3979
2020-03-09 11:19:06.265 +0100,42700.76564575001,0.1298370361328125,0.0828704833984375,-0.9608001708984375,42700.76062175,0.06445201612055282,0.1352358738573435,-0.1503567426795249,-0.7843448519706726,-0.6300261616706848,-0.8907682299613953,-0.02356211841106415,-0.1279407292604446,0.03292810916900635,XArbitraryZVertical,-0.0770679053355865,0.06492612895176084,0.02698388462322576,0.9945435618015891,0.1333029121160507,0.1497908532619476,-0.9796902537345886,42699.42019079167,unknown,2,2020-03-09 11:19:04.918 +0100,605441944.2979221,0,44257.75,100.3979
2020-03-09 11:19:06.275 +0100,42700.77569475,0.133758544921875,0.1183624267578125,-0.961334228515625,42700.77067075,0.05623998171300245,0.1274886997182902,-0.1595818078297669,-0.8135281801223755,-0.6618112325668335,-0.9340363740921021,0.00430847704410553,-0.07603539526462555,0.01848101615905762,XArbitraryZVertical,-0.08129828679490197,0.06123692710223017,0.0228945328618082,0.9945432433448931,0.1255281120538712,0.1589053422212601,-0.9792812466621399,42699.42019079167,unknown,2,2020-03-09 11:19:04.918 +0100,605441944.2979221,0,44257.75,100.3979
2020-03-09 11:19:06.285 +0100,42700.78574375001,0.13665771484375,0.16668701171875,-0.994842529296875,42700.78071975,0.04804471368218409,0.1193148374294556,-0.1687326936875005,-0.8021676540374756,-0.7014055252075195,-0.881899893283844,0.01641663908958435,-0.04957132041454315,0.01745545864105225,XArbitraryZVertical,-0.08551915806943236,0.05737236058902914,0.01886935599204576,0.9945042641779266,0.1173414960503578,0.1679331809282303,-0.978789746761322,42699.42019079167,unknown,2,2020-03-09 11:19:04.918 +0100,605441944.2979221,0,44257.75,100.3979
2020-03-09 11:19:06.295 +0100,42700.79579275,0.142425537109375,0.200775146484375,-1.018081665039062,42700.79076875,0.04030247584420571,0.1107612616618307,-0.1778178624936461,-0.8184326887130737,-0.731493353843689,-0.8355199098587036,0.02786529809236526,-0.01019589602947235,-0.01664173603057861,XArbitraryZVertical,-0.08974865970605077,0.05333610470467927,0.01512567939719143,0.9944201779023644,0.1087920144200325,0.176882266998291,-0.9782008528709412,42699.42019079167,unknown,2,2020-03-09 11:19:04.918 +0100,605441944.2979221,0,44257.75,100.3979
2020-03-09 11:19:06.305 +0100,42700.80584175,0.15155029296875,0.1922149658203125,-1.061813354492188,42700.80081775,0.03264222810413561,0.1019739838303106,-0.1864933994739509,-0.726358950138092,-0.7404511570930481,-0.8506919145584106,0.04239294677972794,0.01536023616790771,-0.04052603244781494,XArbitraryZVertical,-0.09380640163522587,0.04921909719947105,0.01148357829727837,0.994306698692267,0.1000322252511978,0.1854142397642136,-0.9775556921958923,42699.42019079167,unknown,2,2020-03-09 11:19:04.918 +0100,605441944.2979221,0,44257.75,100.3979
2020-03-09 11:19:06.315 +0100,42700.81589075,0.158905029296875,0.157318115234375,-1.09368896484375,42700.81086675001,0.02435257514633431,0.09297437455838317,-0.1939247684215625,-0.5943185687065125,-0.7393092513084412,-0.9036683440208435,0.06044973433017731,-0.0004973113536834717,-0.08479601144790649,XArbitraryZVertical,-0.09726193609636022,0.04507124994070056,0.007607207053755463,0.9942085781214817,0.09110023081302643,0.1927115768194199,-0.9770174026489258,42699.42019079167,unknown,2,2020-03-09 11:19:04.918 +0100,605441944.2979221,0,44257.75,100.3979
2020-03-09 11:19:06.326 +0100,42700.82593975,0.1649169921875,0.120208740234375,-1.130203247070312,42700.82091575,0.01556951460565327,0.08392874512233763,-0.2003277468306142,-0.5345255732536316,-0.7139479517936707,-0.9090228676795959,0.0767509713768959,-0.04167313873767853,-0.1171371936798096,XArbitraryZVertical,-0.1002303542741507,0.04096276455195169,0.003543910677490119,0.9941143680183727,0.08215375989675522,0.1989905387163162,-0.9765518307685852,42699.42019079167,unknown,2,2020-03-09 11:19:04.918 +0100,605441944.2979221,0,44257.75,100.3979
2020-03-09 11:19:06.335 +0100,42700.83598875,0.1532440185546875,0.117218017578125,-1.12921142578125,42700.83096475,0.006913492115643578,0.07527676888440782,-0.2066726313012809,-0.6051055192947388,-0.6563546061515808,-0.8711352348327637,0.09131146967411041,-0.08499649167060852,-0.1542559266090393,XArbitraryZVertical,-0.1032082161251775,0.03707222493887987,-0.0004456898594492071,0.9939685264595416,0.0736052542924881,0.2052044868469238,-0.9759474396705627,42699.42019079167,unknown,2,2020-03-09 11:19:04.918 +0100,605441944.2979221,0,44257.75,100.3979
2020-03-09 11:19:06.345 +0100,42700.84603775,0.13238525390625,0.11151123046875,-1.075439453125,42700.84101375,-0.001460448330477156,0.06718318381906879,-0.2138179852736176,-0.6902843713760376,-0.6152164936065674,-0.866037905216217,0.08763988316059113,-0.09497523307800293,-0.1541881561279297,XArbitraryZVertical,-0.1066208457531598,0.03347139178362275,-0.004309376573133854,0.9937268640301553,0.06560390442609787,0.2121924757957458,-0.9750233292579651,42699.42019079167,unknown,2,2020-03-09 11:19:04.918 +0100,605441944.2979221,0,44257.75,100.3979
2020-03-09 11:19:06.355 +0100,42700.85608675001,0.113006591796875,0.0924072265625,-1.049667358398438,42700.85106275,-0.01021812734487767,0.05923351959431337,-0.2214616035570147,-0.7135078310966492,-0.5870319008827209,-0.9362958669662476,0.0746319591999054,-0.1081453263759613,-0.1015730500221252,XArbitraryZVertical,-0.1103043893893998,0.02999501334608108,-0.008347793618401822,0.9934100605928304,0.05775310099124908,0.219655767083168,-0.9738664627075195,42699.42019079167,unknown,2,2020-03-09 11:19:04.918 +0100,605441944.2979221,0,44257.75,100.3979
2020-03-09 11:19:06.366 +0100,42700.86613575,0.089141845703125,0.10369873046875,-1.047500610351562,42700.86111175,-0.01986158052749139,0.05133717662625283,-0.22928665076604,-0.7535545825958252,-0.5606040358543396,-1.011784791946411,0.06303474307060242,-0.1348765641450882,-0.07712167501449585,XArbitraryZVertical,-0.1140958401225878,0.02663164789086209,-0.01279801290528738,0.9930302315215634,0.04997166246175766,0.2272828966379166,-0.9725458025932312,42699.42019079167,unknown,2,2020-03-09 11:19:04.918 +0100,605441944.2979221,0,44257.75,100.3979
2020-03-09 11:19:06.376 +0100,42700.87618475,0.068267822265625,0.10430908203125,-0.8507843017578125,42700.87115975,-0.03003119869735224,0.04328030654201381,-0.2379473887444344,-0.8841502070426941,-0.580349862575531,-1.038440585136414,0.04709399491548538,-0.1320105344057083,-0.07658696174621582,XArbitraryZVertical,-0.1183294551572191,0.0232648470842628,-0.01747345395499164,0.9925479376230715,0.04204770177602768,0.2357083410024643,-0.9709137678146362,42699.42019079167,unknown,2,2020-03-09 11:19:04.918 +0100,605441944.2979221,0,44257.75,100.3979
2020-03-09 11:19:06.386 +0100,42700.88623375,0.0965423583984375,0.103363037109375,-0.8951263427734375,42700.88120875,-0.04080956574453544,0.03452276644369946,-0.2473507443424186,-0.8686064481735229,-0.6622239351272583,-1.113063097000122,0.03480231016874313,-0.1405280828475952,0.1182023286819458,XArbitraryZVertical,-0.1229668067790433,0.01964171699588281,-0.02237333204773122,0.9919640202548233,0.03346540033817291,0.2448361963033676,-0.9689867496490479,42699.42019079167,unknown,2,2020-03-09 11:19:04.918 +0100,605441944.2979221,0,44257.75,100.3979
2020-03-09 11:19:06.396 +0100,42700.89628275,0.104278564453125,0.156463623046875,-0.946868896484375,42700.89125775,-0.05193774088548561,0.02455716529021464,-0.2559315816799204,-0.8010993003845215,-0.7573423385620117,-1.062557935714722,0.07278738915920258,-0.149784654378891,0.07200974225997925,XArbitraryZVertical,-0.1272479774687591,0.01548721831504302,-0.02731808747787492,0.9913736905571314,0.02375489845871925,0.253146767616272,-0.9671362042427063,42699.42019079167,unknown,2,2020-03-09 11:19:04.918 +0100,605441944.2979221,0,44257.75,100.3979
2020-03-09 11:19:06.406 +0100,42700.90633175,0.0712127685546875,0.1888885498046875,-0.9467010498046875,42700.90130675001,-0.06219764074508638,0.01414483824074062,-0.2646142482882982,-0.8933908939361572,-0.7834647297859192,-0.9497904777526855,0.09062648564577103,-0.1050743162631989,0.01822787523269653,XArbitraryZVertical,-0.1316363833183249,0.01110899707214552,-0.0317538277679136,0.9907270682065769,0.01365204993635416,0.2615369558334351,-0.9650968909263611,42699.42019079167,unknown,2,2020-03-09 11:19:04.918 +0100,605441944.2979221,0,44257.75,100.3979
2020-03-09 11:19:06.416 +0100,42700.91638075,0.0709991455078125,0.1957855224609375,-1.009994506835938,42700.91135575,-0.07179146151584027,0.003827249980845209,-0.2743911539907216,-1.038644909858704,-0.7546688318252563,-0.9120228290557861,0.06752871721982956,-0.0820733904838562,0.01588213443756104,XArbitraryZVertical,-0.1366092030510765,0.006802658762969902,-0.03581228315500418,0.9899540967836374,0.003684064839035273,0.2709609270095825,-0.9625833034515381,42699.42019079167,unknown,2,2020-03-09 11:19:04.918 +0100,605441944.2979221,0,44257.75,100.3979
2020-03-09 11:19:06.426 +0100,42700.92642975,0.0833282470703125,0.16326904296875,-1.033737182617188,42700.92140475,-0.08110188351101391,-0.005920858447115683,-0.2853711924887993,-1.130952477455139,-0.6736019849777222,-0.8651162981987,0.07668056339025497,-0.08572918176651001,-0.05045425891876221,XArbitraryZVertical,-0.1422032064756367,0.002836886109972084,-0.03970704372093294,0.9890366376565555,-0.005681369453668594,0.2815136611461639,-0.9595404267311096,42699.42019079167,unknown,2,2020-03-09 11:19:04.918 +0100,605441944.2979221,0,44257.75,100.3979
2020-03-09 11:19:06.436 +0100,42700.93647875,0.092987060546875,0.183990478515625,-1.067626953125,42700.93145375,-0.09000255621517564,-0.01490082211918665,-0.2963750277218859,-1.05413806438446,-0.6171649694442749,-0.8083993196487427,0.09757897257804871,-0.1287872791290283,-0.07744204998016357,XArbitraryZVertical,-0.1478236894338667,-0.0007194064735702428,-0.04339292871951274,0.9880609791112229,-0.01425064075738192,0.2920551896095276,-0.9562952518463135,42699.42019079167,unknown,2,2020-03-09 11:19:04.918 +0100,605441944.2979221,0,44257.75,100.3979
2020-03-09 11:19:06.446 +0100,42700.94652775001,0.1378631591796875,0.255584716796875,-0.974517822265625,42700.94150275,-0.09853833432295542,-0.0236146544886872,-0.3061477894922229,-0.9225696921348572,-0.620229184627533,-0.7813818454742432,0.115501694381237,-0.1173984408378601,-0.1143913269042969,XArbitraryZVertical,-0.1528558664231843,-0.004145989530621691,-0.04687186362306896,0.9871274823966045,-0.02251451835036278,0.3013877868652344,-0.9532358050346375,42699.42019079167,unknown,2,2020-03-09 11:19:04.918 +0100,605441944.2979221,0,44257.75,100.3979
2020-03-09 11:19:06.456 +0100,42700.95657675,0.171661376953125,0.3025054931640625,-1.047271728515625,42700.95155175,-0.1067641145057397,-0.03268775198171075,-0.3143477679453767,-0.7571085691452026,-0.6845214366912842,-0.7164186239242554,0.1689437627792358,-0.05361264944076538,-0.02402776479721069,XArbitraryZVertical,-0.1571449773819927,-0.007768022867508101,-0.05013746392288886,0.9862714309852839,-0.03108046017587185,0.309196263551712,-0.9504902362823486,42699.42019079167,unknown,2,2020-03-09 11:19:04.918 +0100,605441944.2979221,0,44257.75,100.3979
2020-03-09 11:19:06.466 +0100,42700.96662575,0.130401611328125,0.264068603515625,-1.036911010742188,42700.96160075,-0.1138714800138947,-0.04168242246222686,-0.3217404659846,-0.7861583232879639,-0.6502550840377808,-0.5785470604896545,0.2111936509609222,-0.01371389627456665,-0.09940946102142334,XArbitraryZVertical,-0.1610535745746592,-0.01142438715166399,-0.05282541141394029,0.9854645947285923,-0.03953210264444351,0.3162181973457336,-0.947862446308136,42699.42019079167,unknown,2,2020-03-09 11:19:04.918 +0100,605441944.2979221,0,44257.75,100.3979
2020-03-09 11:19:06.477 +0100,42700.97667475,0.108428955078125,0.1425323486328125,-0.9139556884765625,42700.97164975,-0.1202839153714221,-0.04992555351149031,-0.329609261173045,-0.8125403523445129,-0.5880008339881897,-0.5856809020042419,0.1776202023029327,-0.05960589647293091,-0.09192126989364624,XArbitraryZVertical,-0.1651919011162387,-0.01471962121392042,-0.05518527591440227,0.9846062631090379,-0.04721838235855103,0.3236733376979828,-0.9449899196624756,42699.42019079167,unknown,2,2020-03-09 11:19:04.918 +0100,605441944.2979221,0,44257.75,100.3979
2020-03-09 11:19:06.486 +0100,42700.98672375,0.137603759765625,0.105926513671875,-0.80413818359375,42700.98169875,-0.1276489091363537,-0.05843351896805446,-0.3370301000353637,-0.7486926317214966,-0.6304004788398743,-0.7241320013999939,0.1635439097881317,-0.188154548406601,0.02817428112030029,XArbitraryZVertical,-0.1691425270949629,-0.0180474487413669,-0.05796131218614343,0.9837202145959429,-0.05511472746729851,0.3306857347488403,-0.9421302080154419,42699.42019079167,unknown,2,2020-03-09 11:19:04.918 +0100,605441944.2979221,0,44257.75,100.3979
2020-03-09 11:19:06.496 +0100,42700.99677275,0.118377685546875,0.1569366455078125,-0.847869873046875,42700.99174775001,-0.136556394818438,-0.06778312296868973,-0.3438149534878924,-0.6718297600746155,-0.6366237998008728,-0.8492493629455566,0.2013713121414185,-0.2311559021472931,0.1351751685142517,XArbitraryZVertical,-0.1728431679106528,-0.02164379505218329,-0.06139799218794252,0.9827955512538066,-0.06376729905605316,0.3370812237262726,-0.9393135905265808,42699.42019079167,unknown,2,2020-03-09 11:19:04.918 +0100,605441944.2979221,0,44257.75,100.3979
2020-03-09 11:19:06.506 +0100,42701.00682175,0.0364227294921875,0.3253173828125,-0.9293365478515625,42701.00179675,-0.146164376027603,-0.07757721792386657,-0.3485819560837999,-0.4193570017814636,-0.674639880657196,-0.8587731122970581,0.1912164390087128,-0.1846299469470978,0.089161217212677,XArbitraryZVertical,-0.1756055577480876,-0.02543705535611107,-0.06515014009966458,0.9819730401664001,-0.07283845543861389,0.3415654003620148,-0.9370312690734863,42699.42019079167,unknown,2,2020-03-09 11:19:04.918 +0100,605441944.2979221,0,44257.75,100.3979
2020-03-09 11:19:06.517 +0100,42701.01687075001,-0.0027618408203125,0.4008941650390625,-0.9252471923828125,42701.01184575,-0.1550276083996439,-0.0876102066590865,-0.3527036173063323,-0.609146773815155,-0.7062030434608459,-0.7094560861587524,0.1185350343585014,-0.02012008428573608,0.005506217479705811,XArbitraryZVertical,-0.1780829881595917,-0.02941014681960193,-0.06850245825923111,0.9811874615127399,-0.08211197704076767,0.3454362452030182,-0.9348430037498474,42699.42019079167,unknown,2,2020-03-09 11:19:04.918 +0100,605441944.2979221,0,44257.75,100.3979
2020-03-09 11:19:06.527 +0100,42701.02691975,0.0339508056640625,0.250274658203125,-1.010787963867188,42701.02189475,-0.1622111986794452,-0.09671402767452295,-0.3587917569374136,-0.6234663724899292,-0.6105689406394958,-0.5217141509056091,0.08765283972024918,0.04974985122680664,0.006698787212371826,XArbitraryZVertical,-0.1814940689327814,-0.03296674092403125,-0.07102646237901308,0.9802695196379443,-0.09041434526443481,0.3511431813240051,-0.9319462180137634,42699.42019079167,unknown,2,2020-03-09 11:19:04.918 +0100,605441944.2979221,0,44257.75,100.3979
2020-03-09 11:19:06.537 +0100,42701.03696775001,0.0635986328125,0.22735595703125,-0.972076416015625,42701.03194375,-0.1681069713781161,-0.1052372170897483,-0.3623892674885545,-0.2198795527219772,-0.6921147704124451,-0.5351288914680481,0.1321719586849213,-0.1042358577251434,-0.08090871572494507,XArbitraryZVertical,-0.1836632943495309,-0.03644260350912278,-0.07302155320724492,0.9795956394064013,-0.09822078794240952,0.3545093238353729,-0.9298794865608215,42699.42019079167,unknown,2,2020-03-09 11:19:04.918 +0100,605441944.2979221,0,44257.75,100.3979
2020-03-09 11:19:06.547 +0100,42701.04701675,0.04815673828125,0.2908782958984375,-0.926177978515625,42701.04199275,-0.1750615989442589,-0.1149593193933473,-0.3638096959542116,-0.2842630743980408,-0.7164387702941895,-0.716239869594574,0.1707975417375565,-0.1284823715686798,-0.04369717836380005,XArbitraryZVertical,-0.1848523337463348,-0.04049558591599588,-0.0754819941771297,0.9790261188628432,-0.1071985214948654,0.3558371365070343,-0.9283794164657593,42699.42019079167,unknown,2,2020-03-09 11:19:04.918 +0100,605441944.2979221,0,44257.75,100.3979
2020-03-09 11:19:06.557 +0100,42701.05706575,0.0288543701171875,0.263641357421875,-0.8627471923828125,42701.05204175,-0.1835885847215531,-0.1244483335934263,-0.3682530673373725,-0.807553768157959,-0.5579927563667297,-0.7147789001464844,0.1639626920223236,-0.06910896301269531,-0.0004357695579528809,XArbitraryZVertical,-0.1875680072929268,-0.04412516579394776,-0.07860436011419877,0.9781066453094013,-0.115805558860302,0.3599861562252045,-0.9257424473762512,42699.42019079167,unknown,2,2020-03-09 11:19:04.918 +0100,605441944.2979221,0,44257.75,100.3979
2020-03-09 11:19:06.567 +0100,42701.06711475,0.0411376953125,0.2198944091796875,-0.85894775390625,42701.06209075001,-0.1919153146348173,-0.1324380134558045,-0.3775375139150475,-1.153873205184937,-0.4510737955570221,-0.5849514007568359,0.1516063064336777,-0.1049923002719879,0.05868738889694214,XArbitraryZVertical,-0.1926042367157298,-0.04675676698232892,-0.0815424592519431,0.9767642013747392,-0.1227515190839767,0.3686325252056122,-0.9214348196983337,42699.42019079167,unknown,2,2020-03-09 11:19:04.918 +0100,605441944.2979221,0,44257.75,100.3979
2020-03-09 11:19:06.577 +0100,42701.07716375,0.048095703125,0.2692108154296875,-0.8395538330078125,42701.07213975,-0.1997338316720465,-0.1401656863732383,-0.3873693374565528,-0.9396292567253113,-0.521949827671051,-0.6090676188468933,0.1704938858747482,-0.1578608155250549,0.05787748098373413,XArbitraryZVertical,-0.197897888011997,-0.04923080976345826,-0.08418552326656176,0.975359124912385,-0.12935571372509,0.3777539730072021,-0.916825532913208,42699.42019079167,unknown,2,2020-03-09 11:19:04.918 +0100,605441944.2979221,0,44257.75,100.3979
2020-03-09 11:19:06.587 +0100,42701.08721275,0.0574493408203125,0.3337554931640625,-0.821929931640625,42701.08218875001,-0.2082685347837903,-0.149004450184965,-0.3940801714941535,-0.6104886531829834,-0.5857729911804199,-0.7568730711936951,0.1851709336042404,-0.1147494912147522,0.07356470823287964,XArbitraryZVertical,-0.201754293307963,-0.05230481595648003,-0.08715937887716869,0.9741471462251851,-0.137074738740921,0.383959025144577,-0.913118839263916,42699.42019079167,unknown,2,2020-03-09 11:19:04.918 +0100,605441944.2979221,0,44257.75,100.3979
2020-03-09 11:19:06.597 +0100,42701.09726175,0.066253662109375,0.345947265625,-0.887969970703125,42701.09223775,-0.2176193016785578,-0.1587757607713735,-0.397592886527711,-0.3702989518642426,-0.6415063142776489,-0.8103061318397522,0.2032261341810226,-0.05344590544700623,0.08846825361251831,XArbitraryZVertical,-0.2041458271154946,-0.05590399669863151,-0.09055180166035846,0.9731390026336157,-0.1457762569189072,0.3872001171112061,-0.9103984236717224,42699.42019079167,unknown,2,2020-03-09 11:19:04.918 +0100,605441944.2979221,0,44257.75,100.3979
2020-03-09 11:19:06.607 +0100,42701.10731075001,0.0395355224609375,0.3319549560546875,-0.9783782958984375,42701.10228675,-0.2265822498210656,-0.1688944673867915,-0.3998623075891153,-0.3742790520191193,-0.6655983328819275,-0.7346243858337402,0.2210868149995804,-0.04334554076194763,0.02003800868988037,XArbitraryZVertical,-0.2059709094506069,-0.05976506905116209,-0.09375813576027794,0.9722208818045962,-0.15483258664608,0.389291524887085,-0.9080082178115845,42699.42019079167,unknown,2,2020-03-09 11:19:04.918 +0100,605441944.2979221,0,44257.75,100.3979
2020-03-09 11:19:06.617 +0100,42701.11735975,-0.0012359619140625,0.2967376708984375,-1.041976928710938,42701.11233575,-0.2349716620501668,-0.1785050239866443,-0.4029769355354034,-0.5062249898910522,-0.582694411277771,-0.6801531314849854,0.2028718143701553,-0.0602048933506012,-0.07309794425964355,XArbitraryZVertical,-0.2081937839401826,-0.06336407283011639,-0.09667207551089785,0.971233667824611,-0.1633356958627701,0.3921585381031036,-0.9052807092666626,42699.42019079167,unknown,2,2020-03-09 11:19:04.918 +0100,605441944.2979221,0,44257.75,100.3979
2020-03-09 11:19:06.627 +0100,42701.12740875001,-0.0299835205078125,0.2969512939453125,-1.042343139648438,42701.12238475,-0.2435544770932885,-0.1871343968612277,-0.4074417271777646,-0.6519009470939636,-0.4587410688400269,-0.7135198712348938,0.1695787459611893,-0.09952551126480103,-0.1398690938949585,XArbitraryZVertical,-0.2110528995773961,-0.06635206112902599,-0.0996816208167812,0.9701120991069587,-0.1708140671253204,0.3962617814540863,-0.9021081328392029,42699.42019079167,unknown,2,2020-03-09 11:19:04.918 +0100,605441944.2979221,0,44257.75,100.3979
2020-03-09 11:19:06.637 +0100,42701.13745775,-0.0230712890625,0.3102569580078125,-1.03656005859375,42701.13243375,-0.2531604807444292,-0.1947840729175442,-0.4131851368814595,-0.8001774549484253,-0.2998140752315521,-0.7901037335395813,0.147283524274826,-0.1045784652233124,-0.1438160538673401,XArbitraryZVertical,-0.2145352548204745,-0.06863609369989022,-0.103185982495112,0.9688221693754363,-0.1772664040327072,0.4015284478664398,-0.8985274434089661,42699.42019079167,unknown,2,2020-03-09 11:19:04.918 +0100,605441944.2979221,0,44257.75,100.3979
2020-03-09 11:19:06.647 +0100,42701.14750675,0.016082763671875,0.30462646484375,-0.9550323486328125,42701.14248275,-0.2636115508074661,-0.2014563518639023,-0.4196983912075777,-0.8293648958206177,-0.2027727663516998,-0.8097666501998901,0.1596598029136658,-0.09722942113876343,-0.1418171525001526,XArbitraryZVertical,-0.2183846717766077,-0.07026026003354365,-0.1071240074138821,0.9674171649973484,-0.1827304512262344,0.4074850380420685,-0.8947432637214661,42699.42019079167,unknown,2,2020-03-09 11:19:04.918 +0100,605441944.2979221,0,44257.75,100.3979
2020-03-09 11:19:06.659 +0100,42701.15755575,0.0570526123046875,0.276336669921875,-0.9201812744140625,42701.15253175001,-0.2739521823690584,-0.2077783520211862,-0.4260124941760544,-0.7703703045845032,-0.2189504057168961,-0.7684519290924072,0.2039322406053543,-0.108617901802063,-0.06399792432785034,XArbitraryZVertical,-0.2221303305770227,-0.0716987929650323,-0.1110253125140613,0.9660179056361937,-0.1878488212823868,0.4132429957389832,-0.8910347819328308,42699.42019079167,unknown,2,2020-03-09 11:19:04.918 +0100,605441944.2979221,0,44257.75,100.3979
2020-03-09 11:19:06.690 +0100,42701.16760475,0.0887908935546875,0.2609710693359375,-0.8529815673828125,42701.16258075,-0.2836472134001069,-0.2144354101301959,-0.4313480551468427,-0.6444059610366821,-0.3091532588005066,-0.7297170758247375,0.2503576278686523,-0.1417604684829712,-0.03258413076400757,XArbitraryZVertical,-0.2254163400306752,-0.07340791098793385,-0.1146097232058729,0.9647088580517662,-0.1933043301105499,0.4180957674980164,-0.8875975012779236,42699.42019079167,unknown,2,2020-03-09 11:19:04.918 +0100,605441944.2979221,0,44257.75,100.3979
2020-03-09 11:19:06.695 +0100,42701.17765375,0.0959014892578125,0.27191162109375,-0.9093780517578125,42701.17262975,-0.2930825034143933,-0.2219233378774163,-0.4361495147661802,-0.6716972589492798,-0.3772830963134766,-0.7290619015693665,0.2882925570011139,-0.1614829301834106,0.03117477893829346,XArbitraryZVertical,-0.2285014354661307,-0.07555609778361869,-0.117981715335546,0.9634098323325568,-0.1995009630918503,0.4224525690078735,-0.8841567635536194,42699.42019079167,unknown,2,2020-03-09 11:19:04.918 +0100,605441944.2979221,0,44257.75,100.3979
2020-03-09 11:19:06.696 +0100,42701.18770275,0.07989501953125,0.295257568359375,-0.9722442626953125,42701.18267875,-0.3027035388044588,-0.2296801372103014,-0.4415344101217973,-0.768440306186676,-0.3450098633766174,-0.7156822085380554,0.301734447479248,-0.1554170250892639,-0.02902364730834961,XArbitraryZVertical,-0.2319066930137248,-0.07772969659331541,-0.1213408319176238,0.9620049975969378,-0.2058322131633759,0.4273272156715393,-0.8803547620773315,42699.42019079167,unknown,2,2020-03-09 11:19:04.918 +0100,605441944.2979221,0,44257.75,100.3979
2020-03-09 11:19:06.697 +0100,42701.19775175001,0.05499267578125,0.3380279541015625,-1.082916259765625,42701.19272775,-0.3124069880717593,-0.2369658305892534,-0.4479164302780822,-0.8585334420204163,-0.2729136347770691,-0.6862490177154541,0.2914919257164001,-0.1378323137760162,-0.09608173370361328,XArbitraryZVertical,-0.2357786194212627,-0.07954239665785066,-0.1246876300567438,0.9604864808541388,-0.2115961462259293,0.4330884516239166,-0.8761628866195679,42699.42019079167,unknown,2,2020-03-09 11:19:04.918 +0100,605441944.2979221,0,44257.75,100.3979
2020-03-09 11:19:06.708 +0100,42701.20780075,0.0226898193359375,0.4071044921875,-1.16619873046875,42701.20277575,-0.3220325705520264,-0.2435263692742772,-0.4545496267105249,-0.8200609087944031,-0.2041830718517303,-0.6757556200027466,0.2716356515884399,-0.1010312438011169,-0.210968017578125,XArbitraryZVertical,-0.2397342405532893,-0.080951586734702,-0.1280278027017002,0.9589490073771249,-0.2166421860456467,0.4390577077865601,-0.8719486594200134,42699.42019079167,unknown,2,2020-03-09 11:19:04.918 +0100,605441944.2979221,0,44257.75,100.3979
2020-03-09 11:19:06.717 +0100,42701.21784975,0.00531005859375,0.4705352783203125,-1.1466064453125,42701.21282475,-0.3316061874616743,-0.2493519413523483,-0.4605992005552416,-0.7735167741775513,-0.1084784418344498,-0.6912065744400024,0.2437491714954376,-0.03738191723823547,-0.2981172204017639,XArbitraryZVertical,-0.2433731949275054,-0.08202757631304899,-0.1314429880325238,0.9574777575478512,-0.2210585623979568,0.4444849491119385,-0.8680819272994995,42699.42019079167,unknown,2,2020-03-09 11:19:04.918 +0100,605441944.2979221,0,44257.75,100.3979
2020-03-09 11:19:06.728 +0100,42701.22789875,0.00244140625,0.4914398193359375,-1.11798095703125,42701.22287375,-0.3413539324520465,-0.2543116506946304,-0.466327848858836,-0.7581255435943604,-0.01680418476462364,-0.7024701237678528,0.2300277799367905,0.02092462778091431,-0.2821105718612671,XArbitraryZVertical,-0.246817780087952,-0.08266108809414502,-0.1350438824006925,0.956039338147356,-0.2247169613838196,0.4496092796325684,-0.8644962310791016,42699.42019079167,unknown,2,2020-03-09 11:19:04.918 +0100,605441944.2979221,0,44257.75,100.3979
2020-03-09 11:19:06.737 +0100,42701.23794775,0.0207061767578125,0.5040740966796875,-1.107757568359375,42701.23292275,-0.3510174503469489,-0.2584561216452088,-0.4714880742043032,-0.6489726305007935,0.05710060521960258,-0.6927311420440674,0.2301440387964249,0.03722590208053589,-0.2566784024238586,XArbitraryZVertical,-0.2499400721879612,-0.08293656264173507,-0.1387268405153903,0.9546759622261194,-0.227701872587204,0.4542125165462494,-0.8613029718399048,42699.42019079167,unknown,2,2020-03-09 11:19:04.918 +0100,605441944.2979221,0,44257.75,100.3979
2020-03-09 11:19:06.748 +0100,42701.24799675,0.0461273193359375,0.5276947021484375,-1.0887451171875,42701.24297175001,-0.3600942864126932,-0.2619323972831065,-0.4751592698225164,-0.4752892255783081,0.06347780674695969,-0.6698902249336243,0.2509682178497314,0.0465925931930542,-0.2488682270050049,XArbitraryZVertical,-0.2522926740488735,-0.08308739506390794,-0.1423171479126492,0.953514807497822,-0.2302612662315369,0.4574800729751587,-0.8588897585868835,42699.42019079167,unknown,2,2020-03-09 11:19:04.918 +0100,605441944.2979221,0,44257.75,100.3979
2020-03-09 11:19:06.759 +0100,42701.25804575,0.0670013427734375,0.513885498046875,-1.064956665039062,42701.25302075,-0.3683802208371623,-0.2651115439316193,-0.477552508074555,-0.3735430538654327,0.06479518860578537,-0.6190868616104126,0.2788311243057251,0.06808650493621826,-0.2316511273384094,XArbitraryZVertical,-0.2539931922209557,-0.08330828469161136,-0.1456621787556647,0.9525385503476003,-0.2327031046152115,0.4596068859100342,-0.8570943474769592,42699.42019079167,unknown,2,2020-03-09 11:19:04.918 +0100,605441944.2979221,0,44257.75,100.3979
2020-03-09 11:19:06.768 +0100,42701.26809475,0.078643798828125,0.4766845703125,-1.073944091796875,42701.26306975,-0.3758236558242141,-0.2678327228102441,-0.479124522710861,-0.265819251537323,0.07172153890132904,-0.5700269341468811,0.3018451035022736,0.05288171768188477,-0.2091968655586243,XArbitraryZVertical,-0.2552430835468199,-0.08349181087518934,-0.1487254675082611,0.9517146659223811,-0.2348430603742599,0.4610024690628052,-0.8557601571083069,42699.42019079167,unknown,2,2020-03-09 11:19:04.918 +0100,605441944.2979221,0,44257.75,100.3979
2020-03-09 11:19:06.778 +0100,42701.27814375,0.07861328125,0.4902801513671875,-1.103164672851562,42701.27311875,-0.3825258267445793,-0.2702579034622692,-0.4797200269302914,-0.170172706246376,0.06068529561161995,-0.5423498749732971,0.3154889345169067,0.0151524543762207,-0.2190210819244385,XArbitraryZVertical,-0.2559850260555179,-0.08372553773486864,-0.151552378415413,0.9510486590047186,-0.2368444055318832,0.4615308344364166,-0.85492342710495,42699.42019079167,unknown,2,2020-03-09 11:19:04.918 +0100,605441944.2979221,0,44257.75,100.3979
2020-03-09 11:19:06.788 +0100,42701.28819275001,0.0474395751953125,0.522430419921875,-1.135421752929688,42701.28316775,-0.388921291914243,-0.2725443691027087,-0.4799322132764916,-0.1884316056966782,0.07527062296867371,-0.5335063338279724,0.3173862099647522,0.02855968475341797,-0.2488798499107361,XArbitraryZVertical,-0.2565275589163124,-0.0839701041528374,-0.1542811869670593,0.9504418642929771,-0.2387721538543701,0.4617190361022949,-0.8542852401733398,42699.42019079167,unknown,2,2020-03-09 11:19:04.918 +0100,605441944.2979221,0,44257.75,100.3979
2020-03-09 11:19:06.798 +0100,42701.29824175,-0.00408935546875,0.55859375,-1.171432495117188,42701.29321675,-0.3953163739286917,-0.2743478369141401,-0.4807603395922429,-0.2812866270542145,0.1568474024534225,-0.5059520602226257,0.2876491546630859,0.05997553467750549,-0.281937301158905,XArbitraryZVertical,-0.2573244948306708,-0.08391454017919121,-0.1570147603346034,0.9497834679607204,-0.240208774805069,0.4624534547328949,-0.8534849286079407,42699.42019079167,unknown,2,2020-03-09 11:19:04.918 +0100,605441944.2979221,0,44257.75,100.3979
2020-03-09 11:19:06.809 +0100,42701.30829075,-0.05078125,0.597503662109375,-1.179733276367188,42701.30326575,-0.4017433291514866,-0.2752303441428,-0.4828671247537101,-0.4397279322147369,0.2579236924648285,-0.4673021137714386,0.236608013510704,0.09427192807197571,-0.3190998435020447,XArbitraryZVertical,-0.2586494701606145,-0.08327010368958178,-0.1597651902587289,0.94902132752308,-0.2406965792179108,0.4643203914165497,-0.8523330688476562,42699.42019079167,unknown,2,2020-03-09 11:19:04.918 +0100,605441944.2979221,0,44257.75,100.3979
2020-03-09 11:19:06.818 +0100,42701.31833975,-0.08135986328125,0.6170501708984375,-1.159515380859375,42701.31331475,-0.4082490991763398,-0.2752929696941194,-0.486959545085225,-0.6581249237060547,0.3297109305858612,-0.4110382497310638,0.1894509643316269,0.1295611560344696,-0.3292515277862549,XArbitraryZVertical,-0.2608371243033726,-0.08199315227557664,-0.1624777506286374,0.9480727694130647,-0.2402314096689224,0.467941015958786,-0.8504822254180908,42699.42019079167,unknown,2,2020-03-09 11:19:04.918 +0100,605441944.2979221,0,44257.75,100.3979
2020-03-09 11:19:06.828 +0100,42701.32838875,-0.0877838134765625,0.613067626953125,-1.152786254882812,42701.32336375,-0.4148920444444045,-0.2747981559463387,-0.4932631659627918,-0.8538419604301453,0.3945088386535645,-0.3747771680355072,0.1576462984085083,0.1435461044311523,-0.3117707967758179,XArbitraryZVertical,-0.2640093537333335,-0.0801656013165751,-0.1651246158085304,0.946892973887,-0.239005371928215,0.4735025763511658,-0.8477450609207153,42699.42019079167,unknown,2,2020-03-09 11:19:04.918 +0100,605441944.2979221,0,44257.75,100.3979
2020-03-09 11:19:06.838 +0100,42701.33843775,-0.080810546875,0.5949554443359375,-1.134841918945312,42701.33341275001,-0.4218327296162119,-0.2737506136583739,-0.5011421082253354,-0.971425473690033,0.4731351435184479,-0.3719643652439117,0.1493182182312012,0.1326386034488678,-0.3084098100662231,XArbitraryZVertical,-0.2678688707397464,-0.07783200376070286,-0.1678375712973634,0.9455256736749038,-0.2371012419462204,0.4804275333881378,-0.8443769216537476,42699.42019079167,unknown,2,2020-03-09 11:19:04.918 +0100,605441944.2979221,0,44257.75,100.3979
2020-03-09 11:19:06.848 +0100,42701.34848675,-0.0621337890625,0.5646820068359375,-1.096527099609375,42701.34346175,-0.4291371117100637,-0.2722751025573377,-0.5097160329571914,-1.001404166221619,0.5195567011833191,-0.3935527503490448,0.1539288759231567,0.1070246398448944,-0.2941149473190308,XArbitraryZVertical,-0.2720119807173347,-0.07513827978402356,-0.1707109244256022,0.9440452688436722,-0.2347387075424194,0.4879294037818909,-0.8407274484634399,42699.42019079167,unknown,2,2020-03-09 11:19:04.918 +0100,605441944.2979221,0,44257.75,100.3979
2020-03-09 11:19:06.859 +0100,42701.35853575001,-0.033782958984375,0.5347747802734375,-1.028228759765625,42701.35351075,-0.4366269520090972,-0.2706327200589668,-0.5179329717708896,-0.9053796529769897,0.5353744626045227,-0.4216112792491913,0.17014479637146,0.0695953369140625,-0.2593074440956116,XArbitraryZVertical,-0.275961650992926,-0.07235410832698952,-0.1737212795251773,0.9425660514350697,-0.2322778701782227,0.4950852692127228,-0.8372200727462769,42699.42019079167,unknown,2,2020-03-09 11:19:04.918 +0100,605441944.2979221,0,44257.75,100.3979
2020-03-09 11:19:06.868 +0100,42701.36858375,-0.00079345703125,0.5153350830078125,-0.9983367919921875,42701.36355975,-0.4440444332205675,-0.2690554605569969,-0.5245063981915966,-0.688214898109436,0.5050753951072693,-0.4652170836925507,0.1963047087192535,0.03398764133453369,-0.1937991380691528,XArbitraryZVertical,-0.2791329922487855,-0.06978352024817529,-0.176833303450464,0.941246526898699,-0.230087012052536,0.5007858276367188,-0.8344300389289856,42699.42019079167,unknown,2,2020-03-09 11:19:04.918 +0100,605441944.2979221,0,44257.75,100.3979
2020-03-09 11:19:06.879 +0100,42701.37863275001,0.017120361328125,0.519134521484375,-1.03289794921875,42701.37360875,-0.4512654001197366,-0.2681687380249086,-0.5287516749397178,-0.4538910686969757,0.3866093754768372,-0.5037548542022705,0.2279888689517975,0.01087778806686401,-0.1657609939575195,XArbitraryZVertical,-0.2812662914818735,-0.06783183892186335,-0.1799648267645821,0.9401598950963989,-0.2287816256284714,0.5044558644294739,-0.8325762152671814,42699.42019079167,unknown,2,2020-03-09 11:19:04.918 +0100,605441944.2979221,0,44257.75,100.3979
2020-03-09 11:19:06.888 +0100,42701.38868175,-0.010009765625,0.5671844482421875,-1.064544677734375,42701.38365775,-0.4580477846255279,-0.2683581806070682,-0.5309547243288943,-0.2936723530292511,0.2672955095767975,-0.4967632591724396,0.2457651942968369,0.01277619600296021,-0.2014391422271729,XArbitraryZVertical,-0.2825293101688746,-0.06668986086851064,-0.1829219868026296,0.9392918153637008,-0.2286441326141357,0.5063568353652954,-0.8314592838287354,42699.42019079167,unknown,2,2020-03-09 11:19:04.918 +0100,605441944.2979221,0,44257.75,100.3979
2020-03-09 11:19:06.898 +0100,42701.39873075,-0.078826904296875,0.6047515869140625,-1.082839965820312,42701.39370675,-0.4641911921413862,-0.2689789968040683,-0.5324403031558297,-0.2849190831184387,0.2365091294050217,-0.4358286559581757,0.2189510464668274,0.05954563617706299,-0.2339540719985962,XArbitraryZVertical,-0.2834756469784707,-0.06592425804967535,-0.1855805689261827,0.9385389415082327,-0.2289601117372513,0.5076373219490051,-0.830591082572937,42699.42019079167,unknown,2,2020-03-09 11:19:04.918 +0100,605441944.2979221,0,44257.75,100.3979
2020-03-09 11:19:06.909 +0100,42701.40877975,-0.1399993896484375,0.6309814453125,-1.086410522460938,42701.40375575001,-0.4697963573524234,-0.2695730737550654,-0.5343044816488007,-0.3270273804664612,0.2124796956777573,-0.3983468115329742,0.1503748595714569,0.09550750255584717,-0.2532991170883179,XArbitraryZVertical,-0.2845740392070216,-0.06516868197090003,-0.1879517503217544,0.9377870882285488,-0.229201078414917,0.5092425942420959,-0.8295413255691528,42699.42019079167,unknown,2,2020-03-09 11:19:04.918 +0100,605441944.2979221,0,44257.75,100.3979
2020-03-09 11:19:06.919 +0100,42701.41882875,-0.202911376953125,0.64715576171875,-1.05999755859375,42701.41380475,-0.4754343295847059,-0.2703708222079968,-0.5365897099442744,-0.368497908115387,0.2052185237407684,-0.4177749156951904,0.08955267071723938,0.1197719573974609,-0.2581764459609985,XArbitraryZVertical,-0.2858841809536233,-0.06444334690461875,-0.1902661520388161,0.9369716535401095,-0.2295513451099396,0.5112079977989197,-0.8282345533370972,42699.42019079167,unknown,2,2020-03-09 11:19:04.918 +0100,605441946.8661364,0,44257.77,100.3963
2020-03-09 11:19:06.929 +0100,42701.42887775,-0.2522735595703125,0.664215087890625,-1.031890869140625,42701.42385375001,-0.4815996584000635,-0.271442972103056,-0.5392676183846575,-0.430025190114975,0.211823433637619,-0.4510247409343719,0.02716061472892761,0.1336467266082764,-0.2333317995071411,XArbitraryZVertical,-0.2874155307537695,-0.06371196647897684,-0.1927465332564835,0.9360458073947723,-0.2300713360309601,0.5135076642036438,-0.8266661763191223,42699.42019079167,unknown,2,2020-03-09 11:19:04.918 +0100,605441946.8661364,0,44257.77,100.3963
2020-03-09 11:19:06.939 +0100,42701.43892675,-0.280792236328125,0.6735076904296875,-0.9765777587890625,42701.43390275,-0.4880699132594657,-0.2725734870661638,-0.5425876497317821,-0.4970635175704956,0.2223265171051025,-0.4298923015594482,-0.02172741293907166,0.1478599309921265,-0.2071322202682495,XArbitraryZVertical,-0.2892540747829672,-0.06286914957027578,-0.1952940657651872,0.9350078500610368,-0.2305455058813095,0.5163537263870239,-0.8247591257095337,42699.42019079167,unknown,2,2020-03-09 11:19:04.918 +0100,605441946.8661364,0,44257.77,100.3963
2020-03-09 11:19:06.949 +0100,42701.44897575001,-0.2990570068359375,0.6548004150390625,-0.951995849609375,42701.44395175,-0.4942523689585174,-0.2736626790305908,-0.546518677646022,-0.5327855944633484,0.1962150186300278,-0.3748202621936798,-0.04989820718765259,0.1537900567054749,-0.1540313959121704,XArbitraryZVertical,-0.2913557254743379,-0.06195489011552427,-0.1976473164939626,0.9339212221339641,-0.2308933287858963,0.5197161436080933,-0.8225468397140503,42699.42019079167,unknown,2,2020-03-09 11:19:04.918 +0100,605441946.8661364,0,44257.77,100.3963
2020-03-09 11:19:06.960 +0100,42701.45902475,-0.313140869140625,0.6381988525390625,-0.9307708740234375,42701.45400075,-0.5000967054889792,-0.2748133456478813,-0.550599103810508,-0.5064279437065125,0.1805949211120605,-0.366613507270813,-0.067794069647789,0.1316010355949402,-0.1317636370658875,XArbitraryZVertical,-0.2935169575578327,-0.06108547100886273,-0.1998116806312392,0.9328405956373694,-0.2312622517347336,0.5231978893280029,-0.8202327489852905,42699.42019079167,unknown,2,2020-03-09 11:19:04.918 +0100,605441946.8661364,0,44257.77,100.3963
2020-03-09 11:19:06.969 +0100,42701.46907375001,-0.34051513671875,0.6733245849609375,-0.9340057373046875,42701.46404975,-0.5057928158221167,-0.2760343589578182,-0.5541613653990958,-0.4408063292503357,0.1730041205883026,-0.3656435608863831,-0.08138605952262878,0.1119670867919922,-0.1126199960708618,XArbitraryZVertical,-0.2954399144909949,-0.0603290321539027,-0.2019396777210128,0.9318240066478055,-0.2317541688680649,0.5262303352355957,-0.8181513547897339,42699.42019079167,unknown,2,2020-03-09 11:19:04.918 +0100,605441946.8661364,0,44257.77,100.3963
2020-03-09 11:19:06.979 +0100,42701.47912391667,-0.37786865234375,0.724151611328125,-0.940185546875,42701.47409875,-0.5109688682929893,-0.2770396796965623,-0.5573793100019373,-0.4226183295249939,0.1738809496164322,-0.2855549156665802,-0.1084022969007492,0.1443591713905334,-0.1177213191986084,XArbitraryZVertical,-0.2971650349336991,-0.05958610887260006,-0.2038847979277682,0.9308992005530773,-0.2321121841669083,0.5289639830589294,-0.8162848949432373,42699.42019079167,unknown,2,2020-03-09 11:19:04.918 +0100,605441946.8661364,0,44257.77,100.3963
2020-03-09 11:19:06.989 +0100,42701.48917291667,-0.4210662841796875,0.7635650634765625,-0.9365692138671875,42701.48414891667,-0.5147188385620872,-0.2771982405495366,-0.5611009195088229,-0.4641727209091187,0.1922807246446609,-0.1148817241191864,-0.1461667269468307,0.1920315623283386,-0.1258370280265808,XArbitraryZVertical,-0.2989875163394071,-0.05858311572082694,-0.2052378703273646,0.9300816136618013,-0.2317012846469879,0.5321186184883118,-0.8143489956855774,42699.42019079167,unknown,2,2020-03-09 11:19:04.918 +0100,605441946.8661364,0,44257.77,100.3963
2020-03-09 11:19:06.999 +0100,42701.49922191667,-0.448150634765625,0.7879486083984375,-0.92236328125,42701.49419791667,-0.5167257122408547,-0.2763065391749593,-0.5658343001625828,-0.5352853536605835,0.1933190226554871,0.03496376797556877,-0.1907803118228912,0.2274433970451355,-0.1244467496871948,XArbitraryZVertical,-0.301108038488717,-0.05720556051168316,-0.205835156497028,0.9293509794791072,-0.2302853316068649,0.5361202955245972,-0.8121229410171509,42699.42019079167,unknown,2,2020-03-09 11:19:04.918 +0100,605441946.8661364,0,44257.77,100.3963
2020-03-09 11:19:07.009 +0100,42701.50927091667,-0.4463043212890625,0.7696533203125,-0.891082763671875,42701.50424691667,-0.5179140012642918,-0.2751485405296024,-0.5715750706441561,-0.6156973838806152,0.1602476239204407,0.07114813476800919,-0.2196452617645264,0.2469898462295532,-0.1129499673843384,XArbitraryZVertical,-0.3036322336388866,-0.05568302411151566,-0.2059921192297507,0.9285871164769343,-0.2285047769546509,0.5409574508666992,-0.809413731098175,42699.42019079167,unknown,2,2020-03-09 11:19:04.918 +0100,605441946.8661364,0,44257.77,100.3963
2020-03-09 11:19:07.019 +0100,42701.51931991667,-0.409698486328125,0.7035369873046875,-0.8332672119140625,42701.51429591667,-0.5192905135475231,-0.2744107694574238,-0.5782078406611817,-0.7203326821327209,0.1393232345581055,0.06931614875793457,-0.219373494386673,0.2231280207633972,-0.08497267961502075,XArbitraryZVertical,-0.3066060473037371,-0.05419842249249296,-0.2060836529673362,0.9276770728282431,-0.2269302606582642,0.5465239882469177,-0.8061105012893677,42699.42019079167,unknown,2,2020-03-09 11:19:04.918 +0100,605441946.8661364,0,44257.77,100.3963
2020-03-09 11:19:07.029 +0100,42701.52936891667,-0.3614654541015625,0.626190185546875,-0.763580322265625,42701.52434491667,-0.5207633173788486,-0.2738047254188264,-0.5861419501604365,-0.8697738647460938,0.1420942544937134,0.1314343810081482,-0.1844358444213867,0.1503846049308777,-0.0312197208404541,XArbitraryZVertical,-0.3101809219873923,-0.05257221914222956,-0.2060681372147451,0.9265850307274311,-0.2252620756626129,0.5531510710716248,-0.8020479083061218,42699.42019079167,unknown,2,2020-03-09 11:19:04.918 +0100,605441946.8661364,0,44257.77,100.3963
2020-03-09 11:19:07.039 +0100,42701.53941791667,-0.33526611328125,0.570556640625,-0.68780517578125,42701.53439291667,-0.5217758420253171,-0.2729252823671449,-0.5959886333414647,-1.068043231964111,0.1475620269775391,0.23417067527771,-0.1383872628211975,0.06486159563064575,0.03338098526000977,XArbitraryZVertical,-0.3145745628403467,-0.05061573762210395,-0.2056881201644305,0.9252962513111137,-0.2230776101350784,0.5613272190093994,-0.796961784362793,42699.42019079167,unknown,2,2020-03-09 11:19:04.918 +0100,605441946.8661364,0,44257.77,100.3963
2020-03-09 11:19:07.049 +0100,42701.54946691667,-0.3329620361328125,0.5464019775390625,-0.6632843017578125,42701.54444291667,-0.5224392212330792,-0.2717334120097365,-0.607969293688925,-1.250803470611572,0.1617294996976852,0.299508661031723,-0.1149588972330093,-0.0006465911865234375,0.1028860211372375,XArbitraryZVertical,-0.3198824265364901,-0.04826372384461557,-0.2049794275910096,0.9237580867272562,-0.2203066498041153,0.5712018013000488,-0.7906916737556458,42699.42019079167,unknown,2,2020-03-09 11:19:04.918 +0100,605441946.8661364,0,44257.77,100.3963
2020-03-09 11:19:07.059 +0100,42701.55951591667,-0.326568603515625,0.563720703125,-0.6498260498046875,42701.55449091667,-0.5229072560642087,-0.2703596977484087,-0.6213878640897182,-1.329132080078125,0.163603201508522,0.3415572345256805,-0.1158080101013184,-0.03576350212097168,0.1202515959739685,XArbitraryZVertical,-0.3258031372638403,-0.04565226681085829,-0.204062849871711,0.9220230683711887,-0.2171535193920135,0.5821641683578491,-0.7835363745689392,42699.42019079167,unknown,2,2020-03-09 11:19:04.918 +0100,605441946.8661364,0,44257.77,100.3963
2020-03-09 11:19:07.069 +0100,42701.56956491667,-0.315643310546875,0.6086883544921875,-0.666748046875,42701.56453991667,-0.5229878299747494,-0.2688752403664241,-0.6348917062286955,-1.238483071327209,0.1357840746641159,0.361776739358902,-0.1126859486103058,-0.02937096357345581,0.1263810992240906,XArbitraryZVertical,-0.3317284862332894,-0.04303953985879324,-0.2029759283576862,0.9202741595667744,-0.2138821482658386,0.5930903553962708,-0.7762076258659363,42699.42019079167,unknown,2,2020-03-09 11:19:04.918 +0100,605441946.8661364,0,44257.77,100.3963
2020-03-09 11:19:07.079 +0100,42701.57961391667,-0.3065185546875,0.65203857421875,-0.6902923583984375,42701.57458891667,-0.5221613742824375,-0.267332208836661,-0.6466401173210972,-0.9574810862541199,0.0693579837679863,0.3814094960689545,-0.1048139035701752,0.006178736686706543,0.1030144095420837,XArbitraryZVertical,-0.3368289349408994,-0.04080206217824615,-0.201660396223493,0.9188114537252378,-0.2108289152383804,0.6025082468986511,-0.7697629332542419,42699.42019079167,unknown,2,2020-03-09 11:19:04.918 +0100,605441946.8661364,0,44257.77,100.3963
2020-03-09 11:19:07.089 +0100,42701.58966291667,-0.314453125,0.666015625,-0.686676025390625,42701.58463791667,-0.5200471807866582,-0.2658015955164471,-0.6548598204026176,-0.5167588591575623,-0.0223477017134428,0.3700109124183655,-0.09817558526992798,0.04298919439315796,0.07498741149902344,XArbitraryZVertical,-0.3403172803058658,-0.03929413345600959,-0.20011322462086,0.9179296143190674,-0.2083424776792526,0.609048068523407,-0.7652802467346191,42699.42019079167,unknown,2,2020-03-09 11:19:04.918 +0100,605441946.8661364,0,44257.77,100.3963
2020-03-09 11:19:07.099 +0100,42701.59971191667,-0.3414764404296875,0.669677734375,-0.68182373046875,42701.59468691667,-0.5166063802158182,-0.264312902088686,-0.6585883102793866,-0.07189889997243881,-0.0984213575720787,0.3482364118099213,-0.107844352722168,0.05401331186294556,0.07671570777893066,XArbitraryZVertical,-0.3417723093411325,-0.03867260085790896,-0.1984098867330446,0.9177851058532543,-0.2066082805395126,0.6120010018348694,-0.7633922100067139,42699.42019079167,unknown,2,2020-03-09 11:19:04.918 +0100,605441946.8661364,0,44257.77,100.3963
2020-03-09 11:19:07.110 +0100,42701.60976091667,-0.3714447021484375,0.6741943359375,-0.669952392578125,42701.60473591667,-0.5121317493710141,-0.2628972668004329,-0.6586548388669711,0.2141576260328293,-0.1622080504894257,0.3418834209442139,-0.1359591484069824,0.05762273073196411,0.08182042837142944,XArbitraryZVertical,-0.3415756922753068,-0.03877794134470047,-0.1965911260481294,0.9182451258094994,-0.2055168151855469,0.6120536327362061,-0.7636446356773376,42699.42019079167,unknown,2,2020-03-09 11:19:04.918 +0100,605441946.8661364,0,44257.77,100.3963
2020-03-09 11:19:07.119 +0100,42701.61980991667,-0.39825439453125,0.6417694091796875,-0.647125244140625,42701.61478491667,-0.5070167392613748,-0.2616267111683825,-0.6571336918225077,0.2559962272644043,-0.2023473978042603,0.358568012714386,-0.1666572690010071,0.06334298849105835,0.09485077857971191,XArbitraryZVertical,-0.3406691159157579,-0.03927774489317079,-0.1946109415517453,0.9189822379872772,-0.2047869712114334,0.6108499765396118,-0.7648036479949951,42699.42019079167,unknown,2,2020-03-09 11:19:04.918 +0100,605441946.8661364,0,44257.77,100.3963
2020-03-09 11:19:07.131 +0100,42701.62985891667,-0.4019927978515625,0.594970703125,-0.6201324462890625,42701.62483391667,-0.5020575370981316,-0.2606888498201613,-0.6563134010938801,0.0776059553027153,-0.2102985233068466,0.349117249250412,-0.1940552294254303,0.03156775236129761,0.1183534860610962,XArbitraryZVertical,-0.3401118537000252,-0.03980344714110622,-0.1925727773058234,0.9195951590031096,-0.2041986882686615,0.6102002859115601,-0.7654792070388794,42699.42019079167,unknown,2,2020-03-09 11:19:04.918 +0100,605441946.8661364,0,44257.77,100.3963
2020-03-09 11:19:07.140 +0100,42701.63990791667,-0.39117431640625,0.557159423828125,-0.5942535400390625,42701.63488291667,-0.4982387439656972,-0.2604203512604046,-0.6578543446395243,-0.2341791689395905,-0.1988508105278015,0.3110100328922272,-0.1982414722442627,-0.01645117998123169,0.1444914937019348,XArbitraryZVertical,-0.3407024301989146,-0.04011971431706227,-0.1907096645377112,0.9197510346711613,-0.2037507891654968,0.6114203929901123,-0.7646245360374451,42699.42019079167,unknown,2,2020-03-09 11:19:04.918 +0100,605441946.8661364,0,44257.77,100.3963
2020-03-09 11:19:07.149 +0100,42701.64995691667,-0.3731231689453125,0.5419464111328125,-0.5807342529296875,42701.64493191667,-0.4959832178668562,-0.2608633207320828,-0.6627472996400825,-0.6153278350830078,-0.1595326960086823,0.287262886762619,-0.1878583431243896,-0.05812698602676392,0.1673805117607117,XArbitraryZVertical,-0.3428981382680041,-0.04004443112029971,-0.1891120037808703,0.9192681086340038,-0.2033154517412186,0.6152848601341248,-0.7616346478462219,42699.42019079167,unknown,2,2020-03-09 11:19:04.918 +0100,605441946.8661364,0,44257.77,100.3963
2020-03-09 11:19:07.159 +0100,42701.66000591667,-0.3491973876953125,0.564971923828125,-0.5763397216796875,42701.65498091667,-0.4949067142460752,-0.2615728463222961,-0.6710082998521385,-0.9167634844779968,-0.1189081519842148,0.2998048365116119,-0.1705882251262665,-0.07983106374740601,0.175819456577301,XArbitraryZVertical,-0.3466520258613611,-0.03943639659545999,-0.1876737256849602,0.9181806277859691,-0.2025344222784042,0.6217759847640991,-0.7565543055534363,42699.42019079167,unknown,2,2020-03-09 11:19:04.918 +0100,605441946.8661364,0,44257.77,100.3963
2020-03-09 11:19:07.176 +0100,42701.67005491667,-0.3206787109375,0.5713043212890625,-0.5561065673828125,42701.66502991667,-0.4944740313031661,-0.2624686827214345,-0.6814795864295695,-1.055146455764771,-0.1223260536789894,0.3027724027633667,-0.1476852297782898,-0.0649724006652832,0.1737030744552612,XArbitraryZVertical,-0.3514196455527868,-0.03850395821025482,-0.1862717464608205,0.9166920925005194,-0.2015116512775421,0.6299428343772888,-0.7500433325767517,42699.42019079167,unknown,2,2020-03-09 11:19:04.918 +0100,605441946.8661364,0,44257.77,100.3963
2020-03-09 11:19:07.180 +0100,42701.68010391667,-0.2900848388671875,0.5277557373046875,-0.534820556640625,42701.67507891667,-0.4943023265494864,-0.263901982226096,-0.6923295829573779,-1.001171231269836,-0.1866880059242249,0.2782787084579468,-0.1198865175247192,-0.06702923774719238,0.1870044469833374,XArbitraryZVertical,-0.3564007562055569,-0.03771922340418662,-0.1848464715311161,0.915088778984487,-0.2007917165756226,0.6383321285247803,-0.7431115508079529,42699.42019079167,unknown,2,2020-03-09 11:19:04.918 +0100,605441946.8661364,0,44257.77,100.3963
2020-03-09 11:19:07.190 +0100,42701.69015291667,-0.2569580078125,0.478485107421875,-0.4948272705078125,42701.68512791667,-0.4942453249136083,-0.2660794573168084,-0.7019828510534485,-0.851225733757019,-0.2523807287216187,0.2343946099281311,-0.08930468559265137,-0.1179787516593933,0.2018717527389526,XArbitraryZVertical,-0.3609068738359026,-0.03741376116262615,-0.1834490936810538,0.9136152244624756,-0.2007796466350555,0.6457329988479614,-0.7366929054260254,42699.42019079167,unknown,2,2020-03-09 11:19:04.918 +0100,605441946.8661364,0,44257.77,100.3963
2020-03-09 11:19:07.200 +0100,42701.70020191667,-0.227203369140625,0.45892333984375,-0.4493560791015625,42701.69517691667,-0.4942283670807079,-0.2688889221619456,-0.7103093792280326,-0.7540687918663025,-0.3042581379413605,0.2079733312129974,-0.05554431676864624,-0.1735848188400269,0.2360889911651611,XArbitraryZVertical,-0.3648702766994398,-0.03756615325376808,-0.1820775197620557,0.9123081650818592,-0.201413169503212,0.6520683765411377,-0.7309169173240662,42699.42019079167,unknown,2,2020-03-09 11:19:04.918 +0100,605441946.8661364,0,44257.77,100.3963
2020-03-09 11:19:07.210 +0100,42701.71025091667,-0.2134857177734375,0.471588134765625,-0.442840576171875,42701.70522591667,-0.49410674249486,-0.2719923016256468,-0.717910961360672,-0.7007198333740234,-0.3270649313926697,0.2137742340564728,-0.02485984563827515,-0.1988909840583801,0.276136040687561,XArbitraryZVertical,-0.3685270221219991,-0.03796648069981141,-0.1806656507860893,0.9111016569599424,-0.2023430019617081,0.6578126549720764,-0.7254927754402161,42699.42019079167,unknown,2,2020-03-09 11:19:04.918 +0100,605441946.8661364,0,44257.77,100.3963
2020-03-09 11:19:07.220 +0100,42701.72029891667,-0.2115936279296875,0.51873779296875,-0.4876251220703125,42701.71527491667,-0.4936343279150284,-0.2750354945683211,-0.725012535185795,-0.6424013376235962,-0.3426881730556488,0.2399287670850754,-0.01020915806293488,-0.191558301448822,0.2775182127952576,XArbitraryZVertical,-0.3719413768770186,-0.03846925157147085,-0.1791445557013701,0.9099927854709571,-0.2032760232686996,0.6631448268890381,-0.7203594446182251,42699.42019079167,unknown,2,2020-03-09 11:19:04.918 +0100,605441946.8661364,0,44257.77,100.3963
2020-03-09 11:19:07.230 +0100,42701.73034791667,-0.2071075439453125,0.5745391845703125,-0.5211944580078125,42701.72532391667,-0.4924064414611968,-0.2777659073082064,-0.7314272240621208,-0.5316982269287109,-0.3639090359210968,0.2862760126590729,-0.007521599531173706,-0.1491963267326355,0.2280703783035278,XArbitraryZVertical,-0.3750013013383038,-0.03906326621226489,-0.1773998323007281,0.9090530054178426,-0.2040714919567108,0.6679325103759766,-0.7156961560249329,42699.42019079167,unknown,2,2020-03-09 11:19:04.918 +0100,605441946.8661364,0,44257.77,100.3963
2020-03-09 11:19:07.240 +0100,42701.74039691667,-0.2086639404296875,0.608917236328125,-0.5747528076171875,42701.73537291667,-0.4901062930564807,-0.2799421438428685,-0.7365848114571178,-0.3509570062160492,-0.3791168928146362,0.3170077502727509,-0.002433061599731445,-0.09722447395324707,0.19073486328125,XArbitraryZVertical,-0.3774288285611142,-0.03978036152019258,-0.1753980583409059,0.9084053990341974,-0.2046739608049393,0.6717619895935059,-0.711929976940155,42699.42019079167,unknown,2,2020-03-09 11:19:04.918 +0100,605441946.8661364,0,44257.77,100.3963
2020-03-09 11:19:07.250 +0100,42701.75044591667,-0.200286865234375,0.582427978515625,-0.60467529296875,42701.74542191667,-0.486916147610693,-0.2817041354430009,-0.739635135205618,-0.09767415374517441,-0.4031151831150055,0.2960212528705597,-0.003305941820144653,-0.06510281562805176,0.1348432302474976,XArbitraryZVertical,-0.3788662081328152,-0.04076841077394203,-0.1732912161127381,0.9081676140081025,-0.2053574770689011,0.6740184426307678,-0.7095966935157776,42699.42019079167,unknown,2,2020-03-09 11:19:04.918 +0100,605441946.8661364,0,44257.77,100.3963
2020-03-09 11:19:07.260 +0100,42701.76049491667,-0.180328369140625,0.5307159423828125,-0.5848388671875,42701.75547091667,-0.4831237204966884,-0.2833431607535537,-0.7403528825730008,0.09940634667873383,-0.4295306801795959,0.2834726572036743,0.00609859824180603,-0.09212213754653931,0.1041184663772583,XArbitraryZVertical,-0.3792459444098861,-0.04213422314585331,-0.1711817429703516,0.9083468023768458,-0.2063849419355392,0.6745484471321106,-0.7087944149971008,42699.42019079167,unknown,2,2020-03-09 11:19:04.918 +0100,605441946.8661364,0,44257.77,100.3963
2020-03-09 11:19:07.270 +0100,42701.77054391667,-0.1767425537109375,0.4890899658203125,-0.5498504638671875,42701.76551991667,-0.4790343417019763,-0.2848751265750663,-0.7400798589507323,0.0946294292807579,-0.4181917309761047,0.2806323766708374,0.02719444036483765,-0.1436324119567871,0.1238147020339966,XArbitraryZVertical,-0.3791678312077044,-0.04364231591241733,-0.1690627623248485,0.9087050733868055,-0.2075223028659821,0.6743468642234802,-0.7086542248725891,42699.42019079167,unknown,2,2020-03-09 11:19:04.918 +0100,605441946.8661364,0,44257.77,100.3963
2020-03-09 11:19:07.280 +0100,42701.78059291667,-0.172882080078125,0.4525146484375,-0.5214080810546875,42701.77556891667,-0.4753362132494694,-0.2864569459847961,-0.7408002114235971,-0.09172223508358002,-0.3943418860435486,0.2781992852687836,0.03176364302635193,-0.1857901811599731,0.158007800579071,XArbitraryZVertical,-0.3795373639575163,-0.04496595984805635,-0.1670053961202005,0.9088666993607005,-0.20850570499897,0.6748785972595215,-0.7078589200973511,42699.42019079167,unknown,2,2020-03-09 11:19:04.918 +0100,605441946.8661364,0,44257.77,100.3963
2020-03-09 11:19:07.290 +0100,42701.79064191667,-0.1567840576171875,0.41607666015625,-0.47998046875,42701.78561791667,-0.472711396383543,-0.2886646039085938,-0.743716382252075,-0.3612509369850159,-0.3964508473873138,0.251563161611557,0.03662516176700592,-0.2245145440101624,0.184098482131958,XArbitraryZVertical,-0.3809503206917466,-0.04607865562862425,-0.1650809250183229,0.9085713502369978,-0.2095067501068115,0.677027702331543,-0.705507218837738,42699.42019079167,unknown,2,2020-03-09 11:19:04.918 +0100,605441946.8661364,0,44257.77,100.3963
2020-03-09 11:19:07.300 +0100,42701.80069091667,-0.1526031494140625,0.4049530029296875,-0.451141357421875,42701.79566691667,-0.4717843122427071,-0.2918500872583448,-0.7491772237328318,-0.6349262595176697,-0.3504753410816193,0.1860772222280502,0.05390258133411407,-0.2649613618850708,0.2213038206100464,XArbitraryZVertical,-0.3836026608325261,-0.04697377377568096,-0.1634631649129285,0.9077015720913377,-0.2106861472129822,0.6810365319252014,-0.7012849450111389,42699.42019079167,unknown,2,2020-03-09 11:19:04.918 +0100,605441946.8661364,0,44257.77,100.3963
2020-03-09 11:19:07.310 +0100,42701.81073991667,-0.16522216796875,0.4599609375,-0.456634521484375,42701.80571591667,-0.4728537429488708,-0.295530306506785,-0.7567279514091669,-0.8352425694465637,-0.2340099811553955,0.1030081585049629,0.05915918946266174,-0.2815945744514465,0.244423508644104,XArbitraryZVertical,-0.3872569739754775,-0.04742660264881787,-0.16241820902805,0.9063128590258465,-0.2117618471384048,0.6865460872650146,-0.6955655217170715,42699.42019079167,unknown,2,2020-03-09 11:19:04.918 +0100,605441946.8661364,0,44257.77,100.3963
2020-03-09 11:19:07.320 +0100,42701.82078891667,-0.1613616943359375,0.5344696044921875,-0.479034423828125,42701.81576491667,-0.475404891013922,-0.2992966057609909,-0.7654577328812162,-0.92156583070755,-0.1761777251958847,0.05872851982712746,0.04738306999206543,-0.2329075336456299,0.2323745489120483,XArbitraryZVertical,-0.3914622085003615,-0.04746032451975944,-0.1618797710335078,0.9045992741838964,-0.2126047760248184,0.6928671002388,-0.6890097260475159,42699.42019079167,unknown,2,2020-03-09 11:19:04.918 +0100,605441946.8661364,0,44257.77,100.3963
2020-03-09 11:19:07.331 +0100,42701.83083791667,-0.1658935546875,0.6153717041015625,-0.5446624755859375,42701.82581391667,-0.4785669540987259,-0.3029655213308066,-0.7744881658341095,-0.9149284362792969,-0.1103283911943436,0.04269309341907501,0.05189451575279236,-0.1648820638656616,0.2031900882720947,XArbitraryZVertical,-0.3957939789559429,-0.0472712032507773,-0.1615804555860507,0.9027758906471348,-0.2132557481527328,0.6993502974510193,-0.6822251081466675,42699.42019079167,unknown,2,2020-03-09 11:19:04.918 +0100,605441946.8661364,0,44257.77,100.3963
2020-03-09 11:19:07.340 +0100,42701.84088691667,-0.1633148193359375,0.6975555419921875,-0.5912322998046875,42701.83586291667,-0.4817067884895022,-0.3058781914236087,-0.7825801724348755,-0.7241206169128418,-0.037709079682827,0.01511785667389631,0.04763767123222351,-0.089741051197052,0.1315192580223083,XArbitraryZVertical,-0.3996416899623839,-0.04685445849457762,-0.1615050527848132,0.9011144700217979,-0.2135307639837265,0.7051113843917847,-0.6761823296546936,42699.42019079167,unknown,2,2020-03-09 11:19:04.918 +0100,605441946.8661364,0,44257.77,100.3963
2020-03-09 11:19:07.351 +0100,42701.85093591667,-0.1406402587890625,0.75738525390625,-0.627410888671875,42701.84591191667,-0.4840543796386402,-0.3077989469815787,-0.787667435647234,-0.3265810012817383,-0.02854487672448158,-0.02679124474525452,0.05042526125907898,-0.01115542650222778,0.08111077547073364,XArbitraryZVertical,-0.4020712825316099,-0.04654910960673844,-0.1615985083099532,0.9000320860310571,-0.2137396186590195,0.7087095975875854,-0.6723437309265137,42699.42019079167,unknown,2,2020-03-09 11:19:04.918 +0100,605441946.8661364,0,44257.77,100.3963
2020-03-09 11:19:07.361 +0100,42701.86098491667,-0.12646484375,0.771728515625,-0.643707275390625,42701.85596091667,-0.4852854469925965,-0.3091054157734543,-0.7882638386964544,0.1563622653484344,-0.05604800954461098,-0.1044636964797974,0.0738493949174881,0.04825365543365479,0.04424953460693359,XArbitraryZVertical,-0.4024655997968791,-0.04680698154777167,-0.1618214575442529,0.8998023206925972,-0.2144892066717148,0.7091302275657654,-0.6716610789299011,42699.42019079167,unknown,2,2020-03-09 11:19:04.918 +0100,605441946.8661364,0,44257.77,100.3963
2020-03-09 11:19:07.370 +0100,42701.87103391667,-0.1134033203125,0.72564697265625,-0.6480865478515625,42701.86600991667,-0.4856952644618021,-0.3101136200789756,-0.7845272810548181,0.5098202228546143,-0.08303621411323547,-0.1728235930204391,0.08950892090797424,0.06523656845092773,0.03025531768798828,XArbitraryZVertical,-0.4009284093504474,-0.0476953841877786,-0.1622316804788662,0.9003678638439311,-0.215973362326622,0.706490695476532,-0.6739631295204163,42699.42019079167,unknown,2,2020-03-09 11:19:04.918 +0100,605441946.8661364,0,44257.77,100.3963
2020-03-09 11:19:07.381 +0100,42701.88108291667,-0.105621337890625,0.6704864501953125,-0.6359710693359375,42701.87605891667,-0.4857279085696933,-0.3109537980925065,-0.7786867253208404,0.5424742102622986,-0.06271030008792877,-0.1764932572841644,0.1043954491615295,0.02330052852630615,0.02961122989654541,XArbitraryZVertical,-0.3984494770178478,-0.04887577639441121,-0.1627480717110789,0.9013113410883825,-0.2177983522415161,0.7023451924324036,-0.6776983737945557,42699.42019079167,unknown,2,2020-03-09 11:19:04.918 +0100,605441946.8661364,0,44257.77,100.3963
2020-03-09 11:19:07.391 +0100,42701.89113191667,-0.1014556884765625,0.6141815185546875,-0.6458587646484375,42701.88610791667,-0.4862730097859566,-0.3114345147358374,-0.7746827946387552,0.1601459980010986,0.04990012943744659,-0.137876883149147,0.1133631318807602,-0.02900421619415283,0.04429340362548828,XArbitraryZVertical,-0.3967536389996277,-0.04953858559166103,-0.1633571443127998,0.901912818646554,-0.2189840525388718,0.699489414691925,-0.680264949798584,42699.42019079167,unknown,2,2020-03-09 11:19:04.918 +0100,605441946.8661364,0,44257.77,100.3963
2020-03-09 11:19:07.401 +0100,42701.90118091667,-0.0952301025390625,0.5721435546875,-0.6685638427734375,42701.89615591667,-0.4881479450368016,-0.3116552006686801,-0.7752499361825045,-0.3607404828071594,0.1571634560823441,-0.07956807315349579,0.1175572276115417,-0.08571434020996094,0.03397959470748901,XArbitraryZVertical,-0.3970656821718236,-0.04918730815526782,-0.1640936825588157,0.9016609825104265,-0.2190124988555908,0.6998946070671082,-0.6798388957977295,42699.42019079167,unknown,2,2020-03-09 11:19:04.918 +0100,605441946.8661364,0,44257.77,100.3963
