loggingTime(txt),locationTimestamp_since1970(s),locationLatitude(WGS84),locationLongitude(WGS84),locationAltitude(m),locationSpeed(m/s),locationCourse(°),locationVerticalAccuracy(m),locationHorizontalAccuracy(m),locationFloor(Z),accelerometerTimestamp_sinceReboot(s),accelerometerAccelerationX(G),accelerometerAccelerationY(G),accelerometerAccelerationZ(G),motionTimestamp_sinceReboot(s),motionYaw(rad),motionRoll(rad),motionPitch(rad),motionRotationRateX(rad/s),motionRotationRateY(rad/s),motionRotationRateZ(rad/s),motionUserAccelerationX(G),motionUserAccelerationY(G),motionUserAccelerationZ(G),motionAttitudeReferenceFrame(txt),motionQuaternionX(R),motionQuaternionY(R),motionQuaternionZ(R),motionQuaternionW(R),motionGravityX(G),motionGravityY(G),motionGravityZ(G),activityTimestamp_sinceReboot(s),activity(txt),activityActivityConfidence(Z),activityActivityStartDate(txt),altimeterTimestamp_sinceReboot(s),altimeterReset(bool),altimeterRelativeAltitude(m),altimeterPressure(kPa)
2020-03-09 10:19:17.199 +0100,1583745555.999735,52.5640144326559,13.41055424571469,47.26379,0,43.13222105842848,3.777714181513174,20.47588065472998,-9999,40814.13330075,-0.372406005859375,-0.4795074462890625,-0.764068603515625,40814.12827675,0.8641709235946183,-0.4399069367642577,0.5140830346750117,0.1552222371101379,0.02815664559602737,-0.1483255922794342,0.02678972482681274,0.01041790843009949,0.01167070865631104,XArbitraryZVertical,0.313660523566679,-0.08772859844409965,0.3448807701919821,0.8803282299441837,-0.3708108961582184,-0.4917366206645966,-0.7878415584564209,40775.39722125,unknown,2,2020-03-09 10:18:38.401 +0100,605438356.5645143,0,44260.89,100.3775
2020-03-09 10:19:17.203 +0100,1583745555.999735,52.5640144326559,13.41055424571469,47.26379,0,43.13222105842848,3.777714181513174,20.47588065472998,-9999,40814.14837375,-0.3863372802734375,-0.5004425048828125,-0.7879486083984375,40814.14334975,0.8626602604842278,-0.4389871502211474,0.5158336303817721,0.01522099133580923,-0.01721552386879921,-0.09808168560266495,-0.002682954072952271,0.01375719904899597,0.02333134412765503,XArbitraryZVertical,0.3141659732232361,-0.08717104757216032,0.3441015344910769,0.8805084093844087,-0.3697196543216705,-0.4932601749897003,-0.7874019145965576,40775.39722125,unknown,2,2020-03-09 10:18:38.401 +0100,605438356.5645143,0,44260.89,100.3775
2020-03-09 10:19:17.204 +0100,1583745555.999735,52.5640144326559,13.41055424571469,47.26379,0,43.13222105842848,3.777714181513174,20.47588065472998,-9999,40814.16344675,-0.331390380859375,-0.54437255859375,-0.7679443359375,40814.15842275,0.8621003272299734,-0.4392386759251959,0.5160932018454655,-0.01272702030837536,-0.04162073135375977,0.02098717540502548,0.001336425542831421,-0.0255829393863678,0.001439571380615234,XArbitraryZVertical,0.3142930754392194,-0.08731201068023198,0.3437771615892842,0.8805757329842815,-0.3698632419109344,-0.4934859573841095,-0.7871929407119751,40775.39722125,unknown,2,2020-03-09 10:18:38.401 +0100,605438356.5645143,0,44260.89,100.3775
2020-03-09 10:19:17.205 +0100,1583745555.999735,52.5640144326559,13.41055424571469,47.26379,0,43.13222105842848,3.777714181513174,20.47588065472998,-9999,40814.17851975,-0.335662841796875,-0.5399627685546875,-0.751739501953125,40814.17349575,0.8627135958010896,-0.4399942702886413,0.5154234735745579,-0.02931362390518188,-0.01032466907054186,0.06865320354700089,0.03921180963516235,-0.05146455764770508,0.01926571130752563,XArbitraryZVertical,0.3141705552653699,-0.08769730489822634,0.3440274233212643,0.8804833827241022,-0.3705986142158508,-0.4929033517837524,-0.787212073802948,40775.39722125,unknown,2,2020-03-09 10:18:38.401 +0100,605438356.5645143,0,44260.89,100.3775
2020-03-09 10:19:17.206 +0100,1583745555.999735,52.5640144326559,13.41055424571469,47.26379,0,43.13222105842848,3.777714181513174,20.47588065472998,-9999,40814.19359275,-0.3515472412109375,-0.5211334228515625,-0.7479248046875,40814.18856875,0.8635102424011311,-0.4404152287024858,0.5144001536265774,-0.07455091178417206,-0.01376929134130478,0.07564312964677811,0.02475860714912415,-0.04033124446868896,0.03541940450668335,XArbitraryZVertical,0.3138512876578931,-0.08798536022889586,0.3444633283205702,0.8803981380848954,-0.3711448013782501,-0.4920127093791962,-0.7875118851661682,40775.39722125,unknown,2,2020-03-09 10:18:38.401 +0100,605438356.5645143,0,44260.89,100.3775
2020-03-09 10:19:17.215 +0100,1583745555.999735,52.5640144326559,13.41055424571469,47.26379,0,43.13222105842848,3.777714181513174,20.47588065472998,-9999,40814.20866575,-0.3476104736328125,-0.5096282958984375,-0.761993408203125,40814.20364075001,0.8640894971710295,-0.4413266399025157,0.5121217170748605,-0.1550577878952026,-0.05987346172332764,0.1076077222824097,0.02079659700393677,-0.03110092878341675,0.04025804996490479,XArbitraryZVertical,0.3130839155299252,-0.08880329570680658,0.3449123923387553,0.8804134460479696,-0.3723402619361877,-0.4900278747081757,-0.7881848812103271,40775.39722125,unknown,2,2020-03-09 10:18:38.401 +0100,605438356.5645143,0,44260.89,100.3775
2020-03-09 10:19:17.229 +0100,1583745555.999735,52.5640144326559,13.41055424571469,47.26379,0,43.13222105842848,3.777714181513174,20.47588065472998,-9999,40814.22373875,-0.3374481201171875,-0.4988555908203125,-0.7610321044921875,40814.21871375,0.8641117666123489,-0.4424237286920206,0.5096293351114907,-0.1413880437612534,-0.0809454545378685,0.02503880858421326,0.03130757808685303,-0.0149797797203064,0.02141904830932617,XArbitraryZVertical,0.3122347460975963,-0.0898380594904461,0.3451192930039946,0.8805288643136309,-0.373726487159729,-0.4878537058830261,-0.7888771891593933,40775.39722125,unknown,2,2020-03-09 10:18:38.401 +0100,605438356.5645143,0,44260.89,100.3775
2020-03-09 10:19:17.244 +0100,1583745556.999746,52.56390366739527,13.41044428208008,47.26441,2.211184,217.5684527322985,5.041563661096574,18.9292421404121,-9999,40814.23881075,-0.3754425048828125,-0.4990081787109375,-0.80474853515625,40814.23378675,0.8632207177140618,-0.44315614250498,0.5082926129739614,-0.05311568453907967,-0.06058075278997421,-0.03790563344955444,0.03713887929916382,-0.01216459274291992,0.02815759181976318,XArbitraryZVertical,0.3117632097285595,-0.09059723646817756,0.3448103905012711,0.880739200827637,-0.3745834529399872,-0.4866864085197449,-0.7891916632652283,40775.39722125,unknown,2,2020-03-09 10:18:38.401 +0100,605438356.5645143,0,44260.89,100.3775
2020-03-09 10:19:17.260 +0100,1583745556.999746,52.56390366739527,13.41044428208008,47.26441,2.211184,217.5684527322985,5.041563661096574,18.9292421404121,-9999,40814.25388375,-0.4162139892578125,-0.4629669189453125,-0.8097991943359375,40814.24885975001,0.861885837658447,-0.4430980759840068,0.5085171484949319,-0.007459705229848623,-0.03660925477743149,-0.1079345196485519,-0.01547455787658691,-0.0009363889694213867,-0.02070176601409912,XArbitraryZVertical,0.3117864010191637,-0.09072980369174219,0.3441983240243471,0.8809567240272276,-0.3744907677173615,-0.4868825674057007,-0.7891147136688232,40775.39722125,unknown,2,2020-03-09 10:18:38.401 +0100,605438356.5645143,0,44260.89,100.3775
2020-03-09 10:19:17.274 +0100,1583745556.999746,52.56390366739527,13.41044428208008,47.26441,2.211184,217.5684527322985,5.041563661096574,18.9292421404121,-9999,40814.26895675001,-0.41473388671875,-0.44598388671875,-0.7816925048828125,40814.26393275,0.8596577501653534,-0.4428517212341987,0.5092422882329247,-0.0248603243380785,-0.08046999573707581,-0.1568590253591537,-0.04206550121307373,0.02455347776412964,-0.02091348171234131,XArbitraryZVertical,0.3119457058898533,-0.09080764874061945,0.3431479250250374,0.8813019703865329,-0.374144971370697,-0.4875158071517944,-0.7888876795768738,40775.39722125,unknown,2,2020-03-09 10:18:38.401 +0100,605438356.5645143,0,44260.89,100.3775
2020-03-09 10:19:17.290 +0100,1583745556.999746,52.56390366739527,13.41044428208008,47.26441,2.211184,217.5684527322985,5.041563661096574,18.9292421404121,-9999,40814.28402975,-0.374969482421875,-0.4754486083984375,-0.7886810302734375,40814.27900575,0.8569621645926452,-0.4426927861117229,0.5096057555611422,-0.0889679417014122,-0.05864512175321579,-0.1340754181146622,-0.02589422464370728,0.03361392021179199,0.007214665412902832,XArbitraryZVertical,0.3119477294625603,-0.09107750695675605,0.3419308929294187,0.8817463774965683,-0.3739436566829681,-0.4878331422805786,-0.7887870073318481,40775.39722125,unknown,2,2020-03-09 10:18:38.401 +0100,605438356.5645143,0,44260.89,100.3775
2020-03-09 10:19:17.305 +0100,1583745556.999746,52.56390366739527,13.41044428208008,47.26441,2.211184,217.5684527322985,5.041563661096574,18.9292421404121,-9999,40814.29910275,-0.370391845703125,-0.471588134765625,-0.8134765625,40814.29407875,0.8541319278222733,-0.4418746769529821,0.5086891209679882,-0.1414969861507416,-0.01866298168897629,-0.1166189536452293,-0.001476794481277466,0.01158851385116577,0.000813603401184082,XArbitraryZVertical,0.3112957527546178,-0.09136023422417146,0.3409454193469738,0.8823288900826023,-0.3734892606735229,-0.4870327711105347,-0.7894965410232544,40775.39722125,unknown,2,2020-03-09 10:18:38.401 +0100,605438356.5645143,0,44260.89,100.3775
2020-03-09 10:19:17.320 +0100,1583745556.999746,52.56390366739527,13.41044428208008,47.26441,2.211184,217.5684527322985,5.041563661096574,18.9292421404121,-9999,40814.31417575001,-0.375823974609375,-0.4673004150390625,-0.8069305419921875,40814.30915075,0.8511508859968693,-0.4405642163105697,0.5079205596626213,-0.1006166040897369,-0.00336458720266819,-0.1459976434707642,-0.003573000431060791,0.01850065588951111,-0.02135425806045532,XArbitraryZVertical,0.3106147445251748,-0.09141472632287785,0.3399466573315974,0.8829484812901226,-0.3726138770580292,-0.4863613843917847,-0.7903236746788025,40775.39722125,unknown,2,2020-03-09 10:18:38.401 +0100,605438356.5645143,0,44260.89,100.3775
2020-03-09 10:19:17.335 +0100,1583745556.999746,52.56390366739527,13.41044428208008,47.26441,2.211184,217.5684527322985,5.041563661096574,18.9292421404121,-9999,40814.32924875,-0.3566741943359375,-0.4860076904296875,-0.7929534912109375,40814.32422375,0.8482716665805488,-0.4392341629055371,0.5074091030072132,-0.1112852096557617,-0.01031459309160709,-0.1195259243249893,-0.004152625799179077,0.01861816644668579,-0.01588881015777588,XArbitraryZVertical,0.3100430930491497,-0.09138644095696305,0.3389565484123939,0.8835328011937731,-0.3716681003570557,-0.485914409160614,-0.7910435795783997,40775.39722125,unknown,2,2020-03-09 10:18:38.401 +0100,605438356.5645143,0,44260.89,100.3775
2020-03-09 10:19:17.350 +0100,1583745556.999746,52.56390366739527,13.41044428208008,47.26441,2.211184,217.5684527322985,5.041563661096574,18.9292421404121,-9999,40814.34432075,-0.3667755126953125,-0.49200439453125,-0.791473388671875,40814.33929675,0.8460214338172612,-0.4385522356227446,0.5063505084648626,-0.1257096976041794,-0.03360740095376968,-0.06435401737689972,0.01635438203811646,-0.002021610736846924,-0.0004150867462158203,XArbitraryZVertical,0.3093806580292451,-0.09166544828170868,0.3382227286276619,0.8840171342009472,-0.3713468015193939,-0.4849889278411865,-0.791762113571167,40775.39722125,unknown,2,2020-03-09 10:18:38.401 +0100,605438356.5645143,0,44260.89,100.3775
2020-03-09 10:19:17.365 +0100,1583745556.999746,52.56390366739527,13.41044428208008,47.26441,2.211184,217.5684527322985,5.041563661096574,18.9292421404121,-9999,40814.35939375,-0.3923797607421875,-0.480804443359375,-0.8307342529296875,40814.35436975,0.8444404179366746,-0.4379744020800363,0.5054123086273872,-0.02369610592722893,0.01359528210014105,-0.06399659067392349,0.00430983304977417,-0.007831871509552002,0.0009130239486694336,XArbitraryZVertical,0.308816631744556,-0.09185942919205578,0.3377501100159982,0.8843748193261647,-0.3710820376873016,-0.4841682314872742,-0.7923882603645325,40775.39722125,unknown,2,2020-03-09 10:18:38.401 +0100,605438356.5645143,0,44260.89,100.3775
2020-03-09 10:19:17.380 +0100,1583745556.999746,52.56390366739527,13.41044428208008,47.26441,2.211184,217.5684527322985,5.041563661096574,18.9292421404121,-9999,40814.37446675,-0.3967742919921875,-0.4678802490234375,-0.8180694580078125,40814.36944275,0.8436103107689878,-0.4372898323089133,0.5071059210979224,0.174100324511528,0.009345942176878452,-0.1121342852711678,-0.02876138687133789,0.0145232081413269,-0.03676265478134155,XArbitraryZVertical,0.3093742698214026,-0.0913152316807348,0.3372416840915942,0.8844304018540253,-0.3701917231082916,-0.4856494069099426,-0.7918981909751892,40775.39722125,unknown,2,2020-03-09 10:18:38.401 +0100,605438356.5645143,0,44260.89,100.3775
2020-03-09 10:19:17.395 +0100,1583745556.999746,52.56390366739527,13.41044428208008,47.26441,2.211184,217.5684527322985,5.041563661096574,18.9292421404121,-9999,40814.38953975,-0.379547119140625,-0.4892425537109375,-0.803924560546875,40814.38451575,0.8436101312539794,-0.437431524677042,0.5105321436385115,0.2121487110853195,-0.01789059117436409,-0.07239373773336411,-0.02717423439025879,0.02076554298400879,-0.02773749828338623,XArbitraryZVertical,0.3108365131616044,-0.09062993448715267,0.3367191791868156,0.8841871115593367,-0.3695968687534332,-0.4886415898799896,-0.7903337478637695,40775.39722125,unknown,2,2020-03-09 10:18:38.401 +0100,605438356.5645143,0,44260.89,100.3775
2020-03-09 10:19:17.410 +0100,1583745556.999746,52.56390366739527,13.41044428208008,47.26441,2.211184,217.5684527322985,5.041563661096574,18.9292421404121,-9999,40814.40461275,-0.3543243408203125,-0.4694976806640625,-0.771728515625,40814.39958875001,0.8440926382816235,-0.438017824615457,0.5134363092357561,0.1625753045082092,-0.03689597174525261,-0.05085249245166779,0.0007007122039794922,0.008252084255218506,-0.009330034255981445,XArbitraryZVertical,0.3121752550125007,-0.09017957194786419,0.3364158961266298,0.8838770096294303,-0.3694567382335663,-0.4911733865737915,-0.7888284921646118,40775.39722125,unknown,2,2020-03-09 10:18:38.401 +0100,605438356.5645143,0,44260.89,100.3775
2020-03-09 10:19:17.425 +0100,1583745556.999746,52.56390366739527,13.41044428208008,47.26441,2.211184,217.5684527322985,5.041563661096574,18.9292421404121,-9999,40814.41968575,-0.366180419921875,-0.4793701171875,-0.76214599609375,40814.41466075,0.8441041494169929,-0.4383445936067126,0.5153525016425096,0.06278648972511292,0.00102896336466074,-0.05957198143005371,0.0149931013584137,0.02334800362586975,0.01612377166748047,XArbitraryZVertical,0.3130341001634039,-0.08990336088314539,0.3360887532648794,0.8837257901000996,-0.3693143129348755,-0.4928416013717651,-0.7878540754318237,40775.39722125,unknown,2,2020-03-09 10:18:38.401 +0100,605438356.5645143,0,44260.89,100.3775
2020-03-09 10:19:17.440 +0100,1583745556.999746,52.56390366739527,13.41044428208008,47.26441,2.211184,217.5684527322985,5.041563661096574,18.9292421404121,-9999,40814.43475875,-0.377197265625,-0.4759979248046875,-0.78350830078125,40814.42973375,0.8434536233000629,-0.4377624333790165,0.516055439974997,0.01527963858097792,0.02513895928859711,-0.04528089240193367,0.00169217586517334,0.01442292332649231,0.02128887176513672,XArbitraryZVertical,0.3132018215181193,-0.08959434115021919,0.3357892545300001,0.883811511105852,-0.3687086403369904,-0.4934531152248383,-0.7877549529075623,40775.39722125,unknown,2,2020-03-09 10:18:38.401 +0100,605438356.5645143,0,44260.89,100.3775
2020-03-09 10:19:17.455 +0100,1583745556.999746,52.56390366739527,13.41044428208008,47.26441,2.211184,217.5684527322985,5.041563661096574,18.9292421404121,-9999,40814.44983075,-0.37689208984375,-0.486236572265625,-0.7821197509765625,40814.44480675001,0.8430896038723418,-0.4373088105641475,0.5170096141632867,0.07781779021024704,0.00808663759380579,-0.04104716330766678,-0.00904238224029541,0.01828908920288086,0.003985106945037842,XArbitraryZVertical,0.3135093969427294,-0.08924252348485513,0.3355594377714531,0.8838254184612109,-0.3681516945362091,-0.4942828118801117,-0.7874952554702759,40775.39722125,unknown,2,2020-03-09 10:18:38.401 +0100,605438356.5645143,0,44260.89,100.3775
2020-03-09 10:19:17.470 +0100,1583745556.999746,52.56390366739527,13.41044428208008,47.26441,2.211184,217.5684527322985,5.041563661096574,18.9292421404121,-9999,40814.46490375001,-0.358245849609375,-0.4912872314453125,-0.7606353759765625,40814.45987975,0.8432898659092676,-0.4376668708802577,0.5179681933519446,0.04398659244179726,-0.03822679817676544,-0.002476602792739868,-0.002918839454650879,0.005358844995498657,0.01346397399902344,XArbitraryZVertical,0.3139801782869636,-0.0891599678166434,0.3354510268087821,0.8837078206579833,-0.3682326674461365,-0.4951158761978149,-0.7869338989257812,40775.39722125,unknown,2,2020-03-09 10:18:38.401 +0100,605438356.5645143,0,44260.89,100.3775
2020-03-09 10:19:17.485 +0100,1583745556.999746,52.56390366739527,13.41044428208008,47.26441,2.211184,217.5684527322985,5.041563661096574,18.9292421404121,-9999,40814.47997675,-0.34552001953125,-0.5062713623046875,-0.77081298828125,40814.47495275,0.8434137891100801,-0.4384314489514975,0.5181489556800091,-0.01029043644666672,-0.05065247416496277,0.008315225131809711,0.01055365800857544,0.003989964723587036,0.02593380212783813,XArbitraryZVertical,0.3141896744600664,-0.08943883603266416,0.3353591384798566,0.8836400793612068,-0.3687962293624878,-0.4952729046344757,-0.7865710854530334,40775.39722125,unknown,2,2020-03-09 10:18:38.401 +0100,605438356.5645143,0,44260.89,100.3775
2020-03-09 10:19:17.501 +0100,1583745556.999746,52.56390366739527,13.41044428208008,47.26441,2.211184,217.5684527322985,5.041563661096574,18.9292421404121,-9999,40814.49504975,-0.34564208984375,-0.505523681640625,-0.7706298828125,40814.49002575,0.8435788166475338,-0.4392964523369449,0.5176408369086631,-0.03773035481572151,-0.04212378710508347,0.02625021524727345,0.0276830792427063,-0.01378548145294189,0.01488637924194336,XArbitraryZVertical,0.3141292039827797,-0.08990613262844591,0.3353709376276247,0.8836097233112348,-0.3695834875106812,-0.4948314428329468,-0.7864794731140137,40775.39722125,unknown,2,2020-03-09 10:18:38.401 +0100,605438356.5645143,0,44260.89,100.3775
2020-03-09 10:19:17.516 +0100,1583745556.999746,52.56390366739527,13.41044428208008,47.26441,2.211184,217.5684527322985,5.041563661096574,18.9292421404121,-9999,40814.51012275001,-0.352783203125,-0.487884521484375,-0.753021240234375,40814.50509875,0.843090569192562,-0.4394294795886916,0.5165539927019113,-0.1174024492502213,-0.01261094864457846,-0.02012337371706963,0.02427786588668823,-0.01163268089294434,0.01628470420837402,XArbitraryZVertical,0.3136740962399662,-0.09027901404170505,0.3352942903214043,0.8837624222964729,-0.3699166774749756,-0.4938866794109344,-0.7869164943695068,40775.39722125,unknown,2,2020-03-09 10:18:38.401 +0100,605438356.5645143,0,44260.89,100.3775
2020-03-09 10:19:17.531 +0100,1583745556.999746,52.56390366739527,13.41044428208008,47.26441,2.211184,217.5684527322985,5.041563661096574,18.9292421404121,-9999,40814.52519575,-0.3463897705078125,-0.493560791015625,-0.76141357421875,40814.52017075,0.8415772442982891,-0.4389276242378608,0.5146146968060743,-0.1773858964443207,-0.01329751219600439,-0.01938807591795921,0.02177152037620544,0.003632634878158569,0.03724855184555054,XArbitraryZVertical,0.3127084191555621,-0.09071743595820637,0.3349890418034104,0.8841753946129998,-0.3699280321598053,-0.4921994805335999,-0.7879675626754761,40775.39722125,unknown,2,2020-03-09 10:18:38.401 +0100,605438356.5645143,0,44260.89,100.3775
2020-03-09 10:19:17.546 +0100,1583745556.999746,52.56390366739527,13.41044428208008,47.26441,2.211184,217.5684527322985,5.041563661096574,18.9292421404121,-9999,40814.54026875,-0.367523193359375,-0.4707794189453125,-0.7990875244140625,40814.53524375,0.8402527844358665,-0.4382730157174596,0.5130794007395117,-0.05134167522192001,0.00472782738506794,-0.04190590232610703,0.02334597706794739,-0.002693921327590942,0.02747738361358643,XArbitraryZVertical,0.3118944619178469,-0.09096931721610269,0.3347307857102672,0.8845346543825313,-0.3697323799133301,-0.4908624589443207,-0.7888928651809692,40775.39722125,unknown,2,2020-03-09 10:18:38.401 +0100,605438356.5645143,0,44260.89,100.3775
2020-03-09 10:19:17.561 +0100,1583745556.999746,52.56390366739527,13.41044428208008,47.26441,2.211184,217.5684527322985,5.041563661096574,18.9292421404121,-9999,40814.55534075,-0.394287109375,-0.4633026123046875,-0.798858642578125,40814.55031675,0.8391251598043266,-0.4377521541664553,0.5131101071261858,-0.02789250388741493,-0.01527777872979641,-0.0664096474647522,-0.01001507043838501,0.02760624885559082,-0.007469534873962402,XArbitraryZVertical,0.3117689282767537,-0.09090807717937964,0.3343087202716892,0.8847448963996828,-0.3693150579929352,-0.4908892214298248,-0.7890717387199402,40775.39722125,unknown,2,2020-03-09 10:18:38.401 +0100,605438356.5645143,0,44260.89,100.3775
2020-03-09 10:19:17.576 +0100,1583745556.999746,52.56390366739527,13.41044428208008,47.26441,2.211184,217.5684527322985,5.041563661096574,18.9292421404121,-9999,40814.57041375,-0.39007568359375,-0.4597320556640625,-0.7820587158203125,40814.56538975,0.8376115415708996,-0.4376514506732478,0.5129809610217071,-0.06779707968235016,-0.0557221993803978,-0.08727045357227325,-0.02502131462097168,0.02747845649719238,-0.009694278240203857,XArbitraryZVertical,0.3116290216392238,-0.09112746760481288,0.3336736364959796,0.885011215398098,-0.3692624270915985,-0.4907766878604889,-0.789166271686554,40775.39722125,unknown,2,2020-03-09 10:18:38.401 +0100,605438356.5645143,0,44260.89,100.3775
2020-03-09 10:19:17.591 +0100,1583745556.999746,52.56390366739527,13.41044428208008,47.26441,2.211184,217.5684527322985,5.041563661096574,18.9292421404121,-9999,40814.58548629167,-0.3703765869140625,-0.4693145751953125,-0.78125,40814.58046229167,0.835404537398481,-0.4373130702415483,0.5123075812149612,-0.1116526871919632,-0.04883260279893875,-0.09549029916524887,-0.01790061593055725,0.02866160869598389,0.01016956567764282,XArbitraryZVertical,0.3111888649750997,-0.09146740526651173,0.3328478943744873,0.8854419336472159,-0.3691352605819702,-0.4901898801326752,-0.7895904183387756,40775.39722125,unknown,2,2020-03-09 10:18:38.401 +0100,605438356.5645143,0,44260.89,100.3775
2020-03-09 10:19:17.606 +0100,1583745556.999746,52.56390366739527,13.41044428208008,47.26441,2.211184,217.5684527322985,5.041563661096574,18.9292421404121,-9999,40814.60055929167,-0.3480987548828125,-0.4831085205078125,-0.7774505615234375,40814.59553529167,0.8331791979443802,-0.4370517574731176,0.5112735554880964,-0.1181847900152206,-0.0552402138710022,-0.07667210698127747,-0.001230031251907349,0.01997807621955872,0.008893728256225586,XArbitraryZVertical,0.3106085000995294,-0.09192138292890817,0.3320539812959827,0.8858966535061803,-0.3691432774066925,-0.489288330078125,-0.7901456356048584,40775.39722125,unknown,2,2020-03-09 10:18:38.401 +0100,605438356.5645143,0,44260.89,100.3775
2020-03-09 10:19:17.621 +0100,1583745556.999746,52.56390366739527,13.41044428208008,47.26441,2.211184,217.5684527322985,5.041563661096574,18.9292421404121,-9999,40814.61563229167,-0.35711669921875,-0.4789581298828125,-0.7762603759765625,40814.61060829167,0.8313145555026917,-0.4369753288910964,0.5105019988618889,-0.05150306224822998,-0.05554909631609917,-0.0847172811627388,0.02451926469802856,0.007632046937942505,0.01423811912536621,XArbitraryZVertical,0.3101852094068885,-0.09234351684779875,0.3313522118664224,0.8862636620753548,-0.3692425191402435,-0.4886153042316437,-0.7905156016349792,40775.39722125,unknown,2,2020-03-09 10:18:38.401 +0100,605438356.5645143,0,44260.89,100.3775
2020-03-09 10:19:17.636 +0100,1583745556.999746,52.56390366739527,13.41044428208008,47.26441,2.211184,217.5684527322985,5.041563661096574,18.9292421404121,-9999,40814.63070529167,-0.363983154296875,-0.49432373046875,-0.79608154296875,40814.62568129167,0.830204203477013,-0.4369779916037881,0.5109583011461626,0.03164533153176308,-0.03091995790600777,-0.01248106732964516,0.01203674077987671,0.01005944609642029,0.01405036449432373,XArbitraryZVertical,0.3103264778808649,-0.09241855925860712,0.3307932351193721,0.8864152469708787,-0.3691502511501312,-0.4890133738517761,-0.7903125882148743,40775.39722125,unknown,2,2020-03-09 10:18:38.401 +0100,605438356.5645143,0,44260.89,100.3775
2020-03-09 10:19:17.651 +0100,1583745556.999746,52.56390366739527,13.41044428208008,47.26441,2.211184,217.5684527322985,5.041563661096574,18.9292421404121,-9999,40814.64577829167,-0.3715667724609375,-0.4961700439453125,-0.82537841796875,40814.64075329167,0.8311832793768047,-0.4380978087326964,0.5111709683630326,0.04604291170835495,-0.04283946752548218,0.05508385971188545,0.009840905666351318,-0.005715757608413696,-0.0187147855758667,XArbitraryZVertical,0.3106465828665962,-0.0927169613066632,0.3310222463285862,0.8861865092783698,-0.3699908852577209,-0.4891988635063171,-0.7898045182228088,40775.39722125,unknown,2,2020-03-09 10:18:38.401 +0100,605438356.5645143,0,44260.89,100.3775
2020-03-09 10:19:17.666 +0100,1583745556.999746,52.56390366739527,13.41044428208008,47.26441,2.211184,217.5684527322985,5.041563661096574,18.9292421404121,-9999,40814.66085129167,-0.38067626953125,-0.4861602783203125,-0.8310394287109375,40814.65582629167,0.8324032038687216,-0.4390775687670702,0.5116843915158172,0.07366908341646194,-0.02417312003672123,0.03801243379712105,-0.0009057521820068359,-0.006519168615341187,-0.03616613149642944,XArbitraryZVertical,0.3110815002470542,-0.09285052502364546,0.3313353962966112,0.8859027741643193,-0.3706577122211456,-0.4896465837955475,-0.7892141342163086,40775.39722125,unknown,2,2020-03-09 10:18:38.401 +0100,605438356.5645143,0,44260.89,100.3775
2020-03-09 10:19:17.682 +0100,1583745556.999746,52.56390366739527,13.41044428208008,47.26441,2.211184,217.5684527322985,5.041563661096574,18.9292421404121,-9999,40814.67592329167,-0.3699493408203125,-0.494598388671875,-0.8182373046875,40814.67089929167,0.8332840963361411,-0.4399127400346849,0.5128025478881841,0.09851422905921936,-0.01161772292107344,-0.01466991938650608,-0.007453501224517822,0.003931134939193726,-0.0400235652923584,XArbitraryZVertical,0.311730996254575,-0.09284152086625247,0.3314317570408947,0.8856393785481503,-0.3710833191871643,-0.4906212389469147,-0.7884084582328796,40775.39722125,unknown,2,2020-03-09 10:18:38.401 +0100,605438356.5645143,0,44260.89,100.3775
2020-03-09 10:19:17.697 +0100,1583745556.999746,52.56390366739527,13.41044428208008,47.26441,2.211184,217.5684527322985,5.041563661096574,18.9292421404121,-9999,40814.69099629167,-0.3587493896484375,-0.488677978515625,-0.812347412109375,40814.68597229167,0.8334374308050742,-0.4397294779417684,0.5145635205068114,0.1233230158686638,0.03948730230331421,-0.06978856772184372,0.000624239444732666,-0.002439379692077637,-0.03054565191268921,XArbitraryZVertical,0.3124479623254318,-0.09235546848071063,0.3312700262051345,0.8854980682440574,-0.3705704808235168,-0.4921549260616302,-0.7876935005187988,40775.39722125,unknown,2,2020-03-09 10:18:38.401 +0100,605438356.5645143,0,44260.89,100.3775
2020-03-09 10:19:17.723 +0100,1583745556.999746,52.56390366739527,13.41044428208008,47.26441,2.211184,217.5684527322985,5.041563661096574,18.9292421404121,-9999,40814.70606929167,-0.3671112060546875,-0.4730682373046875,-0.7910919189453125,40814.70104529167,0.8334026492476502,-0.4390892637244762,0.5170707567254267,0.1825258880853653,0.03135693818330765,-0.05706557631492615,0.004660040140151978,0.009904026985168457,-0.01510107517242432,XArbitraryZVertical,0.3133939694634086,-0.09153491363267015,0.3309869234670259,0.8853547439181978,-0.3695403635501862,-0.494335949420929,-0.7868111729621887,40775.39722125,unknown,2,2020-03-09 10:18:38.401 +0100,605438356.5645143,0,44260.89,100.3775
2020-03-09 10:19:17.734 +0100,1583745556.999746,52.56390366739527,13.41044428208008,47.26441,2.211184,217.5684527322985,5.041563661096574,18.9292421404121,-9999,40814.72114229167,-0.3640289306640625,-0.4836578369140625,-0.7505645751953125,40814.71611829167,0.8347154591649331,-0.4396273880405706,0.5200221993261429,0.2364144623279572,0.006922495551407337,0.02999928221106529,0.002233028411865234,0.02383530139923096,-0.005805253982543945,XArbitraryZVertical,0.3147823338682971,-0.09092764468695444,0.3310496579779079,0.8849012065335569,-0.3693411350250244,-0.4968993961811066,-0.7852885127067566,40775.39722125,unknown,2,2020-03-09 10:18:38.401 +0100,605438356.5645143,0,44260.89,100.3775
2020-03-09 10:19:17.742 +0100,1583745556.999746,52.56390366739527,13.41044428208008,47.26441,2.211184,217.5684527322985,5.041563661096574,18.9292421404121,-9999,40814.73621529167,-0.3297576904296875,-0.4915618896484375,-0.754638671875,40814.73119129167,0.8386158923461915,-0.441345249968248,0.5230224493957104,0.3027016222476959,0.0003503607586026192,0.2100373208522797,0.02615159749984741,0.01052168011665344,0.03696173429489136,XArbitraryZVertical,0.3165020176000908,-0.09041996746334929,0.3320607016976528,0.8839606201990738,-0.3700511455535889,-0.4995008111000061,-0.7833014130592346,40775.39722125,unknown,2,2020-03-09 10:18:38.401 +0100,605438356.5645143,0,44260.89,100.3775
2020-03-09 10:19:17.757 +0100,1583745556.999746,52.56390366739527,13.41044428208008,47.26441,2.211184,217.5684527322985,5.041563661096574,18.9292421404121,-9999,40814.75128829167,-0.3499755859375,-0.494903564453125,-0.7910003662109375,40814.74626329167,0.8449403732964598,-0.4449368324115173,0.5250731027340432,0.251799076795578,-0.0623440183699131,0.3161938786506653,0.0426657497882843,0.009718358516693115,0.02640056610107422,XArbitraryZVertical,0.3182441655213407,-0.09055453489489483,0.3339794060680784,0.8825974225201142,-0.3724204003810883,-0.5012762546539307,-0.7810410261154175,40775.39722125,unknown,2,2020-03-09 10:18:38.401 +0100,605438356.5645143,0,44260.89,100.3775
2020-03-09 10:19:17.772 +0100,1583745556.999746,52.56390366739527,13.41044428208008,47.26441,2.211184,217.5684527322985,5.041563661096574,18.9292421404121,-9999,40814.76636129167,-0.396026611328125,-0.516082763671875,-0.816864013671875,40814.76133629167,0.8512807441123753,-0.4491184678476676,0.526318800512446,0.2343111634254456,-0.05736950039863586,0.2297039926052094,0.02197545766830444,-0.001395821571350098,-0.02107584476470947,XArbitraryZVertical,0.3197522577468782,-0.09111317998012075,0.3359218769110359,0.8812566062376308,-0.3754117488861084,-0.5023537874221802,-0.7789137363433838,40775.39722125,unknown,2,2020-03-09 10:18:38.401 +0100,605438356.5645143,0,44260.89,100.3775
2020-03-09 10:19:17.787 +0100,1583745556.999746,52.56390366739527,13.41044428208008,47.26441,2.211184,217.5684527322985,5.041563661096574,18.9292421404121,-9999,40814.78143429167,-0.4625701904296875,-0.5373992919921875,-0.7958526611328125,40814.77640929167,0.8529751878564458,-0.4506936117486501,0.529314541781277,0.1590377986431122,-0.001478180289268494,-0.2230986952781677,-0.02004259824752808,-0.01113688945770264,-0.03990256786346436,XArbitraryZVertical,0.3213414751165329,-0.0908735031422124,0.3359646755050685,0.8806867804341844,-0.375980943441391,-0.5049418210983276,-0.7769633531570435,40775.39722125,unknown,2,2020-03-09 10:18:38.401 +0100,605438356.5645143,0,44260.89,100.3775
2020-03-09 10:19:17.802 +0100,1583745556.999746,52.56390366739527,13.41044428208008,47.26441,2.211184,217.5684527322985,5.041563661096574,18.9292421404121,-9999,40814.79650629167,-0.399322509765625,-0.5001068115234375,-0.798980712890625,40814.79148229167,0.8497783012644861,-0.4484904753364253,0.5317126051541883,0.03221030533313751,0.03186666965484619,-0.153033584356308,-0.0742834210395813,-0.01593500375747681,-0.0183950662612915,XArbitraryZVertical,0.3218260796139356,-0.08988753175501436,0.3345493783812076,0.8811496622275359,-0.3737421631813049,-0.5070102214813232,-0.7766963839530945,40775.39722125,unknown,2,2020-03-09 10:18:38.401 +0100,605438356.5645143,0,44260.89,100.3775
2020-03-09 10:19:17.817 +0100,1583745556.999746,52.56390366739527,13.41044428208008,47.26441,2.211184,217.5684527322985,5.041563661096574,18.9292421404121,-9999,40814.81157929167,-0.351806640625,-0.5217132568359375,-0.755645751953125,40814.80655529167,0.851204243095828,-0.4489486914942812,0.5327830465216377,0.1368162333965302,0.02021833881735802,0.1804695874452591,-0.02545738220214844,0.007829666137695312,-0.02294671535491943,XArbitraryZVertical,0.3224124147266438,-0.08962350644050122,0.3349424176279842,0.8808129192008927,-0.3738622665405273,-0.5079326033592224,-0.7760357260704041,40775.39722125,unknown,2,2020-03-09 10:18:38.401 +0100,605438356.5645143,0,44260.89,100.3775
2020-03-09 10:19:17.832 +0100,1583745556.999746,52.56390366739527,13.41044428208008,47.26441,2.211184,217.5684527322985,5.041563661096574,18.9292421404121,-9999,40814.82665229167,-0.34881591796875,-0.4901123046875,-0.7578277587890625,40814.82162829167,0.8532588873764505,-0.4492367679835852,0.5337602507502412,0.09901534020900726,0.05560269951820374,-0.06416653096675873,0.01709195971488953,0.009281516075134277,0.0242428183555603,XArbitraryZVertical,0.3229591387972418,-0.08920280848675442,0.3356531565810514,0.8803846534791672,-0.3738700747489929,-0.5087741017341614,-0.7754805088043213,40775.39722125,unknown,2,2020-03-09 10:18:38.401 +0100,605438356.5645143,0,44260.89,100.3775
2020-03-09 10:19:17.848 +0100,1583745556.999746,52.56390366739527,13.41044428208008,47.26441,2.211184,217.5684527322985,5.041563661096574,18.9292421404121,-9999,40814.84172529167,-0.3516082763671875,-0.5097808837890625,-0.749847412109375,40814.83670129167,0.8531386651491314,-0.4486223986361743,0.5357784158176375,0.1208499073982239,0.01504592038691044,-0.008760398253798485,0.02413433790206909,0.02040195465087891,0.01695388555526733,XArbitraryZVertical,0.3236899339781523,-0.08850520531095891,0.3353947951023196,0.8802851775508242,-0.372947484254837,-0.5105105042457581,-0.7747833132743835,40775.39722125,unknown,2,2020-03-09 10:18:38.401 +0100,605438356.5645143,0,44260.89,100.3775
2020-03-09 10:19:17.863 +0100,1583745556.999746,52.56390366739527,13.41044428208008,47.26441,2.211184,217.5684527322985,5.041563661096574,18.9292421404121,-9999,40814.85679829167,-0.3779144287109375,-0.5203399658203125,-0.7498779296875,40814.85177429167,0.8540130735634212,-0.4488583770983493,0.5366884505833399,0.0267995186150074,0.01405645161867142,0.007351826876401901,0.008292019367218018,0.0004323720932006836,0.02712810039520264,XArbitraryZVertical,0.3241464673004157,-0.08826594524755821,0.3356038836017227,0.8800614516099349,-0.3729285299777985,-0.5112928152084351,-0.7742763757705688,40775.39722125,unknown,2,2020-03-09 10:18:38.401 +0100,605438356.5645143,0,44260.89,100.3775
2020-03-09 10:19:17.878 +0100,1583745556.999746,52.56390366739527,13.41044428208008,47.26441,2.211184,217.5684527322985,5.041563661096574,18.9292421404121,-9999,40814.87187129167,-0.377471923828125,-0.520538330078125,-0.7668304443359375,40814.86684629167,0.8534768987918622,-0.4482046354911816,0.5363774282255729,-0.08437210321426392,0.04190996289253235,-0.03445477783679962,-0.005420386791229248,-0.009310603141784668,0.02478361129760742,XArbitraryZVertical,0.3238838594572345,-0.08813399114565536,0.3355208364656174,0.880203007798392,-0.372491180896759,-0.5110254883766174,-0.7746632695198059,40775.39722125,unknown,2,2020-03-09 10:18:38.401 +0100,605438356.5645143,0,44260.89,100.3775
2020-03-09 10:19:17.893 +0100,1583745556.999746,52.56390366739527,13.41044428208008,47.26441,2.211184,217.5684527322985,5.041563661096574,18.9292421404121,-9999,40814.88694429167,-0.37774658203125,-0.49237060546875,-0.772918701171875,40814.88191929167,0.8522240618296906,-0.4467600373595169,0.535291693012198,-0.08886991441249847,0.06390395015478134,-0.03736561164259911,-0.004988193511962891,-0.001867175102233887,0.00918877124786377,XArbitraryZVertical,0.3231348866136149,-0.08794090077348289,0.3353667368090245,0.8805562034724079,-0.3716112077236176,-0.5100919604301453,-0.7757005095481873,40775.39722125,unknown,2,2020-03-09 10:18:38.401 +0100,605438356.5645143,0,44260.89,100.3775
2020-03-09 10:19:17.908 +0100,1583745556.999746,52.56390366739527,13.41044428208008,47.26441,2.211184,217.5684527322985,5.041563661096574,18.9292421404121,-9999,40814.90201629167,-0.364349365234375,-0.4808502197265625,-0.7769012451171875,40814.89699229167,0.8511597013998451,-0.4454289400648032,0.534698619045468,-0.03513352572917938,0.03820405900478363,-0.03052634745836258,-0.007035195827484131,0.01721489429473877,0.003546953201293945,XArbitraryZVertical,0.3226181854593501,-0.0876575829429931,0.3352021272664344,0.8808365272950265,-0.3707086145877838,-0.5095817446708679,-0.7764673233032227,40775.39722125,unknown,2,2020-03-09 10:18:38.401 +0100,605438356.5645143,0,44260.89,100.3775
2020-03-09 10:19:17.923 +0100,1583745556.999746,52.56390366739527,13.41044428208008,47.26441,2.211184,217.5684527322985,5.041563661096574,18.9292421404121,-9999,40814.91708929167,-0.3621826171875,-0.4827880859375,-0.767547607421875,40814.91206529167,0.8508212328812369,-0.4447899772052515,0.5347607908278964,0.0290974285453558,0.01741122081875801,-0.01279635261744261,0.009865254163742065,0.02843779325485229,0.001222133636474609,XArbitraryZVertical,0.3225221440524441,-0.08741704216220088,0.3351467668750253,0.880916751418051,-0.3701987862586975,-0.5096352696418762,-0.7766754627227783,40775.39722125,unknown,2,2020-03-09 10:18:38.401 +0100,605438356.5645143,0,44260.89,100.3775
2020-03-09 10:19:17.938 +0100,1583745556.999746,52.56390366739527,13.41044428208008,47.26441,2.211184,217.5684527322985,5.041563661096574,18.9292421404121,-9999,40814.93216229167,-0.366424560546875,-0.5018463134765625,-0.7742462158203125,40814.92713829167,0.8510138949638946,-0.4447229553131001,0.5355515960448012,0.05908022820949554,0.006661860272288322,-0.0046916538849473,0.007793456315994263,0.02753126621246338,0.008786857128143311,XArbitraryZVertical,0.3228486087889942,-0.08718191357711229,0.3351237488501594,0.8808291666015151,-0.369973212480545,-0.510315477848053,-0.7763361930847168,40775.39722125,unknown,2,2020-03-09 10:18:38.401 +0100,605438356.5645143,0,44260.89,100.3775
2020-03-09 10:19:17.953 +0100,1583745556.999746,52.56390366739527,13.41044428208008,47.26441,2.211184,217.5684527322985,5.041563661096574,18.9292421404121,-9999,40814.94723529167,-0.374908447265625,-0.52642822265625,-0.78094482421875,40814.94221129167,0.8515438134518187,-0.4448692516845099,0.5361753510179998,0.03188136219978333,0.02026821486651897,0.01139250677078962,0.0006746351718902588,-0.002556800842285156,-0.002480030059814453,XArbitraryZVertical,0.3231558396719837,-0.08702305537697647,0.3352398141241965,0.88068807767965,-0.3699497282505035,-0.5108518004417419,-0.775994598865509,40775.39722125,unknown,2,2020-03-09 10:18:38.401 +0100,605438356.5645143,0,44260.89,100.3775
2020-03-09 10:19:17.968 +0100,1583745556.999746,52.56390366739527,13.41044428208008,47.26441,2.211184,217.5684527322985,5.041563661096574,18.9292421404121,-9999,40814.96230829167,-0.375091552734375,-0.5209503173828125,-0.78643798828125,40814.95728429167,0.851487818086605,-0.4443500664025243,0.5364215332020891,-0.009077557362616062,0.04374977946281433,-0.03224072232842445,-0.005412846803665161,-0.01536095142364502,-0.004873573780059814,XArbitraryZVertical,0.3231688428332221,-0.08674911873124427,0.3352620760855052,0.8807018625344821,-0.3694927394390106,-0.5110633969306946,-0.7760729789733887,40775.39722125,unknown,2,2020-03-09 10:18:38.401 +0100,605438356.5645143,0,44260.89,100.3775
2020-03-09 10:19:17.983 +0100,1583745556.999746,52.56390366739527,13.41044428208008,47.26441,2.211184,217.5684527322985,5.041563661096574,18.9292421404121,-9999,40814.97738129167,-0.379852294921875,-0.49456787109375,-0.7823638916015625,40814.97235729167,0.8504861791435882,-0.4429650730117555,0.5360792374988346,-0.08986422419548035,0.07506150007247925,-0.04398636519908905,-0.00742030143737793,0.0004732608795166016,-0.005837202072143555,XArbitraryZVertical,0.3227508565625268,-0.08637643331450207,0.3350959159022071,0.8809549920594864,-0.3684924840927124,-0.5107691884040833,-0.7767419815063477,40775.39722125,unknown,2,2020-03-09 10:18:38.401 +0100,605438356.5645143,0,44260.89,100.3775
2020-03-09 10:19:17.998 +0100,1583745556.999746,52.56390366739527,13.41044428208008,47.26441,2.211184,217.5684527322985,5.041563661096574,18.9292421404121,-9999,40814.99245429167,-0.3820037841796875,-0.46783447265625,-0.766632080078125,40814.98742929167,0.8486830364832072,-0.4407026435453234,0.5344922761379119,-0.1813563108444214,0.1030220091342926,-0.06349025666713715,-0.01277002692222595,0.01484012603759766,-0.004059791564941406,XArbitraryZVertical,0.3216328864436258,-0.08601966499037925,0.3349030722242093,0.8814718874769054,-0.3670795261859894,-0.509404182434082,-0.7783058285713196,40775.39722125,unknown,2,2020-03-09 10:18:38.401 +0100,605438356.5645143,0,44260.89,100.3775
2020-03-09 10:19:18.013 +0100,1583745556.999746,52.56390366739527,13.41044428208008,47.26441,2.211184,217.5684527322985,5.041563661096574,18.9292421404121,-9999,40815.00752729167,-0.37744140625,-0.463104248046875,-0.759002685546875,40815.00250229167,0.8460051018283782,-0.4377251259624969,0.5323777528901238,-0.1913293153047562,0.1014744490385056,-0.08831198513507843,-0.01623547077178955,0.04254508018493652,0.01329290866851807,XArbitraryZVertical,0.3201372808122173,-0.08560101892278117,0.3345143845340495,0.882204339176881,-0.3652162253856659,-0.5075834393501282,-0.7803691625595093,40775.39722125,unknown,2,2020-03-09 10:18:38.401 +0100,605438356.5645143,0,44260.89,100.3775
2020-03-09 10:19:18.028 +0100,1583745556.999746,52.56390366739527,13.41044428208008,47.26441,2.211184,217.5684527322985,5.041563661096574,18.9292421404121,-9999,40815.02259929167,-0.3802642822265625,-0.4769287109375,-0.7534637451171875,40815.01757529167,0.84330584654931,-0.4349023813224407,0.5302688649231438,-0.203278049826622,0.08913005888462067,-0.07520653307437897,-0.0139765739440918,0.04266464710235596,0.02336180210113525,XArbitraryZVertical,0.3186686378024875,-0.08524828032236494,0.3340856789420918,0.8829324476162224,-0.3634622097015381,-0.5057653188705444,-0.7823660373687744,40775.39722125,unknown,2,2020-03-09 10:18:38.401 +0100,605438356.5645143,0,44260.89,100.3775
2020-03-09 10:19:18.043 +0100,1583745556.999746,52.56390366739527,13.41044428208008,47.26441,2.211184,217.5684527322985,5.041563661096574,18.9292421404121,-9999,40815.03767229167,-0.3677520751953125,-0.5066070556640625,-0.7488555908203125,40815.03264829167,0.8401143321602419,-0.4319193320412646,0.5274135217014787,-0.3052745461463928,0.09871836006641388,-0.1014544442296028,-0.01638036966323853,0.01731115579605103,0.03432631492614746,XArbitraryZVertical,0.3168392404481423,-0.0850608169348523,0.3335692929838219,0.8838036811557483,-0.3617298007011414,-0.5033000111579895,-0.7847551107406616,40775.39722125,unknown,2,2020-03-09 10:18:38.401 +0100,605438356.5645143,0,44260.89,100.3775
2020-03-09 10:19:18.058 +0100,1583745556.999746,52.56390366739527,13.41044428208008,47.26441,2.211184,217.5684527322985,5.041563661096574,18.9292421404121,-9999,40815.05274529167,-0.3776702880859375,-0.513092041015625,-0.7445831298828125,40815.04772129167,0.8353910171942341,-0.4279047509514682,0.5231864993571369,-0.428446501493454,0.1237952709197998,-0.1613257676362991,-0.008293509483337402,-0.006960749626159668,0.03927254676818848,XArbitraryZVertical,0.3141956702600213,-0.08494863253679479,0.3327296601736173,0.885073900972368,-0.3594560623168945,-0.4996429085731506,-0.7881296277046204,40775.39722125,unknown,2,2020-03-09 10:18:38.401 +0100,605438356.5645143,0,44260.89,100.3775
2020-03-09 10:19:18.074 +0100,1583745556.999746,52.56390366739527,13.41044428208008,47.26441,2.211184,217.5684527322985,5.041563661096574,18.9292421404121,-9999,40815.06781829167,-0.3926849365234375,-0.4945220947265625,-0.7624664306640625,40815.06279429167,0.829039176548631,-0.4225442046637449,0.5178561682229507,-0.5243844985961914,0.1759897619485855,-0.2083803713321686,-0.0285719633102417,-0.01591861248016357,0.03858578205108643,XArbitraryZVertical,0.310791937610426,-0.08471652436889202,0.3315216905163202,0.886749627557506,-0.3563132286071777,-0.4950185418128967,-0.792462944984436,40775.39722125,unknown,2,2020-03-09 10:18:38.401 +0100,605438356.5645143,0,44260.89,100.3775
2020-03-09 10:19:18.089 +0100,1583745556.999746,52.56390366739527,13.41044428208008,47.26441,2.211184,217.5684527322985,5.041563661096574,18.9292421404121,-9999,40815.08289129167,-0.3853302001953125,-0.474945068359375,-0.7630462646484375,40815.07786729167,0.8210578989933437,-0.4155727519757694,0.5108721923037686,-0.7052889466285706,0.2365057170391083,-0.2606160640716553,-0.0405152440071106,-0.005580335855484009,0.03560328483581543,XArbitraryZVertical,0.3063495046738584,-0.0843468295334142,0.3300461806116811,0.8888784732888595,-0.3521671295166016,-0.4889382719993591,-0.7980712056159973,40775.39722125,unknown,2,2020-03-09 10:18:38.401 +0100,605438356.5645143,0,44260.89,100.3775
2020-03-09 10:19:18.104 +0100,1583745556.999746,52.56390366739527,13.41044428208008,47.26441,2.211184,217.5684527322985,5.041563661096574,18.9292421404121,-9999,40815.09796429167,-0.351806640625,-0.4373779296875,-0.750152587890625,40815.09294029167,0.8110848425459561,-0.406801747866212,0.5015848635436024,-0.8786100149154663,0.2805111706256866,-0.307114452123642,-0.03054910898208618,0.01873719692230225,0.0482599139213562,XArbitraryZVertical,0.3005409617156123,-0.08392015978896314,0.328231960289201,0.8915695527385774,-0.3469356298446655,-0.4808157980442047,-0.8052650690078735,40775.39722125,unknown,2,2020-03-09 10:18:38.401 +0100,605438356.5645143,0,44260.89,100.3775
2020-03-09 10:19:18.119 +0100,1583745556.999746,52.56390366739527,13.41044428208008,47.26441,2.211184,217.5684527322985,5.041563661096574,18.9292421404121,-9999,40815.11303729167,-0.32489013671875,-0.4310455322265625,-0.733489990234375,40815.10801229167,0.7998508581300522,-0.3973399267256581,0.490283297460183,-1.017448663711548,0.2626040875911713,-0.3081288635730743,-0.01042228937149048,0.03350111842155457,0.06331664323806763,XArbitraryZVertical,0.2936925132309519,-0.08372243812015763,0.3261600304344484,0.8946255593813528,-0.3413819968700409,-0.4708758294582367,-0.8134705424308777,40775.39722125,unknown,2,2020-03-09 10:18:38.401 +0100,605438356.5645143,0,44260.89,100.3775
2020-03-09 10:19:18.134 +0100,1583745556.999746,52.56390366739527,13.41044428208008,47.26441,2.211184,217.5684527322985,5.041563661096574,18.9292421404121,-9999,40815.12811029167,-0.3225860595703125,-0.395416259765625,-0.7211151123046875,40815.12308529167,0.787829075935558,-0.3878630448056274,0.476428803632396,-1.215719103813171,0.2578564584255219,-0.2949435412883759,0.01535546779632568,0.03522610664367676,0.1012234687805176,XArbitraryZVertical,0.2856889604907318,-0.08406507288019771,0.3239836264616875,0.8979696276217372,-0.3360928595066071,-0.4586085975170135,-0.8226297497749329,40775.39722125,unknown,2,2020-03-09 10:18:38.401 +0100,605438356.5645143,0,44260.89,100.3775
2020-03-09 10:19:18.149 +0100,1583745556.999746,52.56390366739527,13.41044428208008,47.26441,2.211184,217.5684527322985,5.041563661096574,18.9292421404121,-9999,40815.14318329167,-0.3228912353515625,-0.350128173828125,-0.7758331298828125,40815.13815829167,0.7754270989703851,-0.3784349463626716,0.4605091360332752,-1.249419331550598,0.2492130249738693,-0.2807438969612122,0.008394181728363037,0.04899105429649353,0.1113249659538269,XArbitraryZVertical,0.2767495628464947,-0.08478825852329576,0.3217840569472801,0.9014852209812013,-0.3309779167175293,-0.444404274225235,-0.8324412703514099,40775.39722125,unknown,2,2020-03-09 10:18:38.401 +0100,605438356.5645143,0,44260.89,100.3775
2020-03-09 10:19:18.164 +0100,1583745556.999746,52.56390366739527,13.41044428208008,47.26441,2.211184,217.5684527322985,5.041563661096574,18.9292421404121,-9999,40815.15825529167,-0.31976318359375,-0.325469970703125,-0.8345184326171875,40815.15323129167,0.7638542480465282,-0.3697048811199956,0.4456812263985919,-1.077417373657227,0.251630574464798,-0.2943101525306702,0.004390537738800049,0.09417682886123657,0.04293394088745117,XArbitraryZVertical,0.2683942522172761,-0.08537511448984098,0.3196074657188901,0.9047244986212911,-0.3260435163974762,-0.4310726523399353,-0.8413512110710144,40775.39722125,unknown,2,2020-03-09 10:18:38.401 +0100,605438356.5645143,0,44260.89,100.3775
2020-03-09 10:19:18.179 +0100,1583745556.999746,52.56390366739527,13.41044428208008,47.26441,2.211184,217.5684527322985,5.041563661096574,18.9292421404121,-9999,40815.17332829167,-0.31866455078125,-0.374786376953125,-0.871002197265625,40815.16830429167,0.7530660699278527,-0.3611847890296859,0.4337840959788208,-0.8617216944694519,0.2600674629211426,-0.3505469560623169,0.0008921027183532715,0.09484022855758667,0.01431691646575928,XArbitraryZVertical,0.2613614424404128,-0.08527599636365965,0.3173001404055239,0.9076005817937811,-0.3206531405448914,-0.4203074276447296,-0.8488364219665527,40775.39722125,unknown,2,2020-03-09 10:18:38.401 +0100,605438356.5645143,0,44260.89,100.3775
2020-03-09 10:19:18.194 +0100,1583745556.999746,52.56390366739527,13.41044428208008,47.26441,2.211184,217.5684527322985,5.041563661096574,18.9292421404121,-9999,40815.18840129167,-0.3265533447265625,-0.4507904052734375,-0.850189208984375,40815.18337729167,0.7426124795303743,-0.352934162071214,0.4244296269034792,-0.7758758068084717,0.2741398811340332,-0.3922208845615387,-0.005265176296234131,0.01165732741355896,-0.01350241899490356,XArbitraryZVertical,0.2554915728791763,-0.0846845514901698,0.3147289828164877,0.9102187656903765,-0.314984142780304,-0.4118010699748993,-0.8551051616668701,40775.39722125,unknown,2,2020-03-09 10:18:38.401 +0100,605438356.5645143,0,44260.89,100.3775
2020-03-09 10:19:18.209 +0100,1583745557.999743,52.56389888813202,13.41043298724925,47.29099,0,219.6548204143325,3.520369933348619,21.55314511680214,-9999,40815.20347429167,-0.3448333740234375,-0.479095458984375,-0.855133056640625,40815.19845029167,0.7315946472341029,-0.3441295772487615,0.4146840238922392,-0.9301713705062866,0.2931731641292572,-0.4210675954818726,-0.01776871085166931,-0.04788696765899658,0.01139229536056519,XArbitraryZVertical,0.249332507980563,-0.08391712406866896,0.3119492216077321,0.9129505857915824,-0.308782547712326,-0.402900755405426,-0.8615824580192566,40775.39722125,unknown,2,2020-03-09 10:18:38.401 +0100,605438356.5645143,0,44260.89,100.3775
2020-03-09 10:19:18.236 +0100,1583745557.999743,52.56389888813202,13.41043298724925,47.29099,0,219.6548204143325,3.520369933348619,21.55314511680214,-9999,40815.21854729167,-0.3513946533203125,-0.43365478515625,-0.824066162109375,40815.21352329167,0.7193383053511763,-0.3347448947276339,0.4021061409567158,-1.13926899433136,0.3054876327514648,-0.4350072145462036,-0.05092984437942505,-0.0834479033946991,0.0185886025428772,XArbitraryZVertical,0.2417644387676147,-0.08348586441075839,0.3089156748611397,0.9160518974805903,-0.3023244142532349,-0.3913573622703552,-0.8691601157188416,40775.39722125,unknown,2,2020-03-09 10:18:38.401 +0100,605438356.5645143,0,44260.89,100.3775
2020-03-09 10:19:18.239 +0100,1583745557.999743,52.56389888813202,13.41043298724925,47.29099,0,219.6548204143325,3.520369933348619,21.55314511680214,-9999,40815.23362029167,-0.3193206787109375,-0.3762054443359375,-0.808319091796875,40815.22859529167,0.7059974288395524,-0.3251834004529035,0.3871910921852218,-1.23569655418396,0.2788537740707397,-0.4744158685207367,-0.05556035041809082,-0.05606341361999512,0.05337804555892944,XArbitraryZVertical,0.233062270409985,-0.08342340226856133,0.3055575986874914,0.9194329107992014,-0.2958323359489441,-0.3775889277458191,-0.8774450421333313,40775.39722125,unknown,2,2020-03-09 10:18:38.401 +0100,605438356.5645143,0,44260.89,100.3775
2020-03-09 10:19:18.255 +0100,1583745557.999743,52.56389888813202,13.41043298724925,47.29099,0,219.6548204143325,3.520369933348619,21.55314511680214,-9999,40815.24869329167,-0.3018798828125,-0.30853271484375,-0.831634521484375,40815.24366829167,0.6923190710154098,-0.3161711487264551,0.3727243485282606,-1.097368717193604,0.2346122562885284,-0.507303774356842,-0.02320706844329834,0.003575980663299561,0.07018697261810303,XArbitraryZVertical,0.2246097963959819,-0.08344441041835859,0.3018164737060332,0.9227644420333921,-0.2895809412002563,-0.3641540706157684,-0.8851749300956726,40775.39722125,unknown,2,2020-03-09 10:18:38.401 +0100,605438356.5645143,0,44260.89,100.3775
2020-03-09 10:19:18.269 +0100,1583745557.999743,52.56389888813202,13.41043298724925,47.29099,0,219.6548204143325,3.520369933348619,21.55314511680214,-9999,40815.26376529167,-0.27789306640625,-0.2888031005859375,-0.8795166015625,40815.25874129167,0.6800436838890869,-0.3087966705902761,0.3608401568825407,-0.8557894825935364,0.1573837399482727,-0.4477398991584778,-0.01753735542297363,0.04452994465827942,0.05971133708953857,XArbitraryZVertical,0.2176130903683817,-0.08349405131390668,0.298175600929704,0.9256157021132724,-0.2843406498432159,-0.353060394525528,-0.8913465738296509,40775.39722125,unknown,2,2020-03-09 10:18:38.401 +0100,605438356.5645143,0,44260.89,100.3775
2020-03-09 10:19:18.285 +0100,1583745557.999743,52.56389888813202,13.41043298724925,47.29099,0,219.6548204143325,3.520369933348619,21.55314511680214,-9999,40815.27883829167,-0.238189697265625,-0.3708953857421875,-0.9273681640625,40815.27381429167,0.6695897012958565,-0.3033622510799786,0.3522662841848588,-0.6413858532905579,0.08611465990543365,-0.4665200710296631,0.01433604955673218,0.03670886158943176,-0.001177608966827393,XArbitraryZVertical,0.212474571597219,-0.08358960226260113,0.2947713836033783,0.9278885775617999,-0.2803865075111389,-0.3450258076190948,-0.8957346677780151,40775.39722125,unknown,2,2020-03-09 10:18:38.401 +0100,605438356.5645143,0,44260.89,100.3775
2020-03-09 10:19:18.300 +0100,1583745557.999743,52.56389888813202,13.41043298724925,47.29099,0,219.6548204143325,3.520369933348619,21.55314511680214,-9999,40815.29391129167,-0.2620697021484375,-0.41802978515625,-0.9446868896484375,40815.28888729167,0.6594118797221661,-0.2984113454920073,0.3464095374274179,-0.4497925043106079,0.1292905211448669,-0.5127916932106018,0.03834980726242065,-0.03137046098709106,-0.02834093570709229,XArbitraryZVertical,0.2086541317288277,-0.08336377088867263,0.2911382035600192,0.929920667515438,-0.2765377759933472,-0.3395228087902069,-0.8990278840065002,40775.39722125,unknown,2,2020-03-09 10:18:38.401 +0100,605438356.5645143,0,44260.89,100.3775
2020-03-09 10:19:18.315 +0100,1583745557.999743,52.56389888813202,13.41043298724925,47.29099,0,219.6548204143325,3.520369933348619,21.55314511680214,-9999,40815.30898429167,-0.3457489013671875,-0.30926513671875,-0.970611572265625,40815.30396029167,0.6502512888798756,-0.2931097449122863,0.3436234605050242,-0.2834773063659668,0.1588771790266037,-0.4478025734424591,-0.01808902621269226,-0.05009040236473083,-0.05293238162994385,XArbitraryZVertical,0.2062335685681253,-0.0823165140800909,0.2876924020089047,0.9316247682183466,-0.2720398604869843,-0.336900919675827,-0.9013833999633789,40775.39722125,unknown,2,2020-03-09 10:18:38.401 +0100,605438356.5645143,0,44260.89,100.3775
2020-03-09 10:19:18.330 +0100,1583745557.999743,52.56389888813202,13.41043298724925,47.29099,0,219.6548204143325,3.520369933348619,21.55314511680214,-9999,40815.32405729167,-0.3729095458984375,-0.2833251953125,-0.9940643310546875,40815.31903329167,0.6428106919172739,-0.2880347797352151,0.3416963925972246,-0.2374439239501953,0.1817919909954071,-0.3881347179412842,-0.07810145616531372,0.02582275867462158,-0.06723892688751221,XArbitraryZVertical,0.2043199782715875,-0.08103543736684966,0.2849267494770633,0.9330076880186097,-0.2676458358764648,-0.3350858986377716,-0.9033731818199158,40775.39722125,unknown,2,2020-03-09 10:18:38.401 +0100,605438356.5645143,0,44260.89,100.3775
2020-03-09 10:19:18.345 +0100,1583745557.999743,52.56389888813202,13.41043298724925,47.29099,0,219.6548204143325,3.520369933348619,21.55314511680214,-9999,40815.33913029167,-0.326751708984375,-0.2965545654296875,-0.9670257568359375,40815.33410629167,0.6354353172222693,-0.28321428211718,0.3384531334853571,-0.4629363119602203,0.1491882055997849,-0.3827361166477203,-0.09239554405212402,0.05662459135055542,-0.08060663938522339,XArbitraryZVertical,0.201849796357658,-0.08006789600986464,0.2822742697816701,0.9344339174001705,-0.2635903358459473,-0.3320283889770508,-0.9056915640830994,40775.39722125,unknown,2,2020-03-09 10:18:38.401 +0100,605438356.5645143,0,44260.89,100.3775
2020-03-09 10:19:18.360 +0100,1583745557.999743,52.56389888813202,13.41043298724925,47.29099,0,219.6548204143325,3.520369933348619,21.55314511680214,-9999,40815.35420329167,-0.267364501953125,-0.2772064208984375,-0.92950439453125,40815.34917829167,0.6268709207120812,-0.2778356177350619,0.3320668041993917,-0.6378173828125,0.1793758869171143,-0.421425849199295,-0.0674586296081543,0.0294451117515564,-0.05790948867797852,XArbitraryZVertical,0.1978125640180427,-0.07944657133950048,0.2793885694837415,0.9362159296098742,-0.2592914402484894,-0.3259976208209991,-0.9091168642044067,40775.39722125,unknown,2,2020-03-09 10:18:38.401 +0100,605438356.5645143,0,44260.89,100.3775
2020-03-09 10:19:18.375 +0100,1583745557.999743,52.56389888813202,13.41043298724925,47.29099,0,219.6548204143325,3.520369933348619,21.55314511680214,-9999,40815.36927629167,-0.1961669921875,-0.262939453125,-0.940521240234375,40815.36425129167,0.6172441470301175,-0.27192378959343,0.324227638435732,-0.6717758774757385,0.1879906803369522,-0.4605026841163635,0.009826362133026123,0.05591398477554321,-0.01776498556137085,XArbitraryZVertical,0.192990610751605,-0.07887253672943212,0.2761534059017124,0.9382285479621456,-0.2545909583568573,-0.3185767531394958,-0.9130675196647644,40775.39722125,unknown,2,2020-03-09 10:18:38.401 +0100,605438356.5645143,0,44260.89,100.3775
2020-03-09 10:19:18.392 +0100,1583745557.999743,52.56389888813202,13.41043298724925,47.29099,0,219.6548204143325,3.520369933348619,21.55314511680214,-9999,40815.38434929167,-0.15716552734375,-0.3209991455078125,-0.9271087646484375,40815.37932429167,0.6070263609826658,-0.2658403145710681,0.3172424793611924,-0.5664492249488831,0.1877005398273468,-0.5376067757606506,0.05344474315643311,0.04901021718978882,-0.02379751205444336,XArbitraryZVertical,0.1885197675938258,-0.07809090371729957,0.2725422843307876,0.9402567773188155,-0.2496102154254913,-0.3119478225708008,-0.9167242050170898,40775.39722125,unknown,2,2020-03-09 10:18:38.401 +0100,605438356.5645143,0,44260.89,100.3775
2020-03-09 10:19:18.406 +0100,1583745557.999743,52.56389888813202,13.41043298724925,47.29099,0,219.6548204143325,3.520369933348619,21.55314511680214,-9999,40815.39942129167,-0.2204132080078125,-0.4072265625,-0.9119415283203125,40815.39439729167,0.595812400687282,-0.2596697677289368,0.3118633160157371,-0.5038256049156189,0.1568724066019058,-0.6521856784820557,0.07994893193244934,-0.03842616081237793,0.01445943117141724,XArbitraryZVertical,0.1847514757565109,-0.07706598313172336,0.2682964147808349,0.942308192024146,-0.2443761378526688,-0.3068326115608215,-0.9198554754257202,40775.39722125,unknown,2,2020-03-09 10:18:38.401 +0100,605438356.5645143,0,44260.89,100.3775
2020-03-09 10:19:18.420 +0100,1583745557.999743,52.56389888813202,13.41043298724925,47.29099,0,219.6548204143325,3.520369933348619,21.55314511680214,-9999,40815.41449429167,-0.368438720703125,-0.4437103271484375,-0.9440155029296875,40815.40947029167,0.5828547528784951,-0.2535512938530849,0.3064064459459376,-0.6658922433853149,0.1822158694267273,-0.7167182564735413,0.01874822378158569,-0.105590283870697,0.01099848747253418,XArbitraryZVertical,0.1808991141943107,-0.07619220655201471,0.2631944244058411,0.9445627784315221,-0.2391599267721176,-0.3016344010829926,-0.9229404926300049,40775.39722125,unknown,2,2020-03-09 10:18:38.401 +0100,605438356.5645143,0,44260.89,100.3775
2020-03-09 10:19:18.435 +0100,1583745557.999743,52.56389888813202,13.41043298724925,47.29099,0,219.6548204143325,3.520369933348619,21.55314511680214,-9999,40815.42956729167,-0.385284423828125,-0.29962158203125,-0.9274444580078125,40815.42454329167,0.5695883831587659,-0.2453458706502798,0.2961923452211906,-1.024944067001343,0.3785076141357422,-0.5791771411895752,-0.1593918800354004,-0.1114075481891632,-0.002699732780456543,XArbitraryZVertical,0.174551077932689,-0.07500544777917142,0.2584678190952628,0.9471539063993017,-0.2323150783777237,-0.2918804883956909,-0.9278122186660767,40775.39722125,unknown,2,2020-03-09 10:18:38.401 +0100,605438356.5645143,0,44260.89,100.3775
2020-03-09 10:19:18.450 +0100,1583745557.999743,52.56389888813202,13.41043298724925,47.29099,0,219.6548204143325,3.520369933348619,21.55314511680214,-9999,40815.44464029167,-0.338775634765625,-0.170501708984375,-0.97137451171875,40815.43961629167,0.5572457379959267,-0.2359204583414567,0.2839273779605977,-0.8608880043029785,0.3789631426334381,-0.5688561201095581,-0.160903200507164,-0.01949188113212585,0.005926430225372314,XArbitraryZVertical,0.1671275966736937,-0.07336690619965332,0.2543640106736278,0.9497286589911484,-0.2243797928094864,-0.2801279425621033,-0.9333713054656982,40775.39722125,unknown,2,2020-03-09 10:18:38.401 +0100,605438356.5645143,0,44260.89,100.3775
2020-03-09 10:19:18.465 +0100,1583745557.999743,52.56389888813202,13.41043298724925,47.29099,0,219.6548204143325,3.520369933348619,21.55314511680214,-9999,40815.45971329167,-0.2657470703125,-0.0399017333984375,-0.92877197265625,40815.45468929167,0.5471365442176093,-0.2281799751776382,0.2746880856032342,-0.6607837080955505,0.2639771103858948,-0.3684757947921753,-0.1015336811542511,0.1493917405605316,-0.02883923053741455,XArbitraryZVertical,0.1614313839930861,-0.07182795440430215,0.2508778265897124,0.9517567280113961,-0.2177245914936066,-0.2712467312812805,-0.9375613331794739,40775.39722125,unknown,2,2020-03-09 10:18:38.401 +0100,605438356.5645143,0,44260.89,100.3775
2020-03-09 10:19:18.481 +0100,1583745557.999743,52.56389888813202,13.41043298724925,47.29099,0,219.6548204143325,3.520369933348619,21.55314511680214,-9999,40815.47478629167,-0.173553466796875,-0.13671875,-0.906463623046875,40815.46976229167,0.5401000185131152,-0.2240772922712268,0.2664845733353647,-0.612398087978363,0.03236521035432816,-0.3393983244895935,-0.05138221383094788,0.2234416306018829,0.01181226968765259,XArbitraryZVertical,0.1567936739611352,-0.07157821882177688,0.2484424758911218,0.9531885498127813,-0.2143635004758835,-0.2633417248725891,-0.9405845999717712,40775.39722125,unknown,2,2020-03-09 10:18:38.401 +0100,605438356.5645143,0,44260.89,100.3775
2020-03-09 10:19:18.495 +0100,1583745557.999743,52.56389888813202,13.41043298724925,47.29099,0,219.6548204143325,3.520369933348619,21.55314511680214,-9999,40815.48985929167,-0.102142333984375,-0.4193572998046875,-0.951629638671875,40815.48483429167,0.5309176891391161,-0.2219097076440206,0.2581775323754705,-0.7911071181297302,-0.01295593101531267,-0.5533711314201355,0.06480468809604645,0.02334117889404297,0.02720880508422852,XArbitraryZVertical,0.1522654009998277,-0.07239472665702086,0.2448146841761297,0.9547983122333837,-0.2127983421087265,-0.2553189098834991,-0.9431484937667847,40775.39722125,unknown,2,2020-03-09 10:18:38.401 +0100,605438356.5645143,0,44260.89,100.3775
2020-03-09 10:19:18.511 +0100,1583745557.999743,52.56389888813202,13.41043298724925,47.29099,0,219.6548204143325,3.520369933348619,21.55314511680214,-9999,40815.50493229167,-0.1000213623046875,-0.5545196533203125,-0.918487548828125,40815.49990729167,0.5180263602633586,-0.2177996563605886,0.2448230503116645,-1.261478185653687,0.1541750729084015,-0.6866183280944824,0.1074972897768021,-0.1769711375236511,-0.004370033740997314,XArbitraryZVertical,0.1449625463807003,-0.0731838215101054,0.2398759478726596,0.9571256146170735,-0.2096382826566696,-0.2423846572637558,-0.9472599625587463,40775.39722125,unknown,2,2020-03-09 10:18:38.401 +0100,605438356.5645143,0,44260.89,100.3775
2020-03-09 10:19:18.526 +0100,1583745557.999743,52.56389888813202,13.41043298724925,47.29099,0,219.6548204143325,3.520369933348619,21.55314511680214,-9999,40815.52000429167,-0.2680816650390625,-0.45404052734375,-0.9539794921875,40815.51498029167,0.5019060032263536,-0.2108817296754536,0.2305582812635636,-0.9210481643676758,0.196011871099472,-0.9333754181861877,0.06251873075962067,-0.3255546689033508,0.05321365594863892,XArbitraryZVertical,0.1367640705460543,-0.07286728928942778,0.2335824456291395,0.959908936291951,-0.2037833034992218,-0.2285210639238358,-0.9519718885421753,40775.39722125,unknown,2,2020-03-09 10:18:38.401 +0100,605438356.5645143,0,44260.89,100.3775
2020-03-09 10:19:18.541 +0100,1583745557.999743,52.56389888813202,13.41043298724925,47.29099,0,219.6548204143325,3.520369933348619,21.55314511680214,-9999,40815.53507729167,-0.315704345703125,-0.340606689453125,-0.9258270263671875,40815.53005329167,0.4861322345745446,-0.2056266144413574,0.2228461218923229,-0.5259565711021423,0.05923353135585785,-0.7906743884086609,-0.06894862651824951,-0.2330327928066254,0.0007467269897460938,XArbitraryZVertical,0.1319025207994316,-0.07237712599724201,0.2268477013452189,0.9622387287920622,-0.1991317123174667,-0.2210062593221664,-0.9547265768051147,40775.39722125,unknown,2,2020-03-09 10:18:38.401 +0100,605438356.5645143,0,44260.89,100.3775
2020-03-09 10:19:18.556 +0100,1583745557.999743,52.56389888813202,13.41043298724925,47.29099,0,219.6548204143325,3.520369933348619,21.55314511680214,-9999,40815.55015029167,-0.25164794921875,-0.310394287109375,-0.92822265625,40815.54512629167,0.473889711208693,-0.2025396388373329,0.2200128984362425,-0.1802316606044769,0.01240610610693693,-0.7404447793960571,-0.1043644100427628,-0.1196317374706268,0.02366447448730469,XArbitraryZVertical,0.129757948340898,-0.07203994853014317,0.2213309299297601,0.9638390226282735,-0.1963087171316147,-0.2182422131299973,-0.9559462666511536,40775.39722125,unknown,2,2020-03-09 10:18:38.401 +0100,605438356.5645143,0,44260.89,100.3775
2020-03-09 10:19:18.571 +0100,1583745557.999743,52.56389888813202,13.41043298724925,47.29099,0,219.6548204143325,3.520369933348619,21.55314511680214,-9999,40815.56522329167,-0.252410888671875,-0.189971923828125,-0.927154541015625,40815.56019929167,0.4613286314022191,-0.199316253283945,0.2209230938939432,-0.07405750453472137,0.03975154832005501,-0.8797415494918823,-0.05845975875854492,-0.09126247465610504,0.02815598249435425,XArbitraryZVertical,0.1293928599464882,-0.07119000579464556,0.2154260983668793,0.9652879820338118,-0.1931869089603424,-0.2191303819417953,-0.9563789367675781,40775.39722125,unknown,2,2020-03-09 10:18:38.401 +0100,605438356.5645143,0,44260.89,100.3775
2020-03-09 10:19:18.586 +0100,1583745557.999743,52.56389888813202,13.41043298724925,47.29099,0,219.6548204143325,3.520369933348619,21.55314511680214,-9999,40815.58029629167,-0.2619476318359375,-0.1782684326171875,-0.9145050048828125,40815.57527229167,0.4471727138360228,-0.196163670344822,0.2207610181395475,-0.371740460395813,-0.01912986300885677,-0.8778149485588074,-0.07141761481761932,0.04598477482795715,0.02012813091278076,XArbitraryZVertical,0.1284788127983304,-0.07059864794116921,0.2088010473392325,0.9669079801058903,-0.1901778131723404,-0.218972235918045,-0.9570180773735046,40775.39722125,unknown,2,2020-03-09 10:18:38.401 +0100,605438356.5645143,0,44260.89,100.3775
2020-03-09 10:19:18.601 +0100,1583745557.999743,52.56389888813202,13.41043298724925,47.29099,0,219.6548204143325,3.520369933348619,21.55314511680214,-9999,40815.5953695,-0.2447052001953125,-0.1089019775390625,-0.927825927734375,40815.5903455,0.4327104580708571,-0.1921466776232949,0.2144917054523213,-0.7921003699302673,0.1376434564590454,-0.8198058009147644,-0.07535594701766968,0.03458377718925476,0.04459768533706665,XArbitraryZVertical,0.1245369436446258,-0.0702784337732457,0.2024251071128862,0.9688010677551492,-0.1865904480218887,-0.21285080909729,-0.959102988243103,40775.39722125,unknown,2,2020-03-09 10:18:38.401 +0100,605438356.5645143,0,44260.89,100.3775
2020-03-09 10:19:18.616 +0100,1583745557.999743,52.56389888813202,13.41043298724925,47.29099,0,219.6548204143325,3.520369933348619,21.55314511680214,-9999,40815.6104425,-0.2168121337890625,0.00445556640625,-0.9668731689453125,40815.6054185,0.4174384958474962,-0.185789037319288,0.2035035868547981,-0.9195051789283752,0.2701607346534729,-0.8448027968406677,-0.05326521396636963,0.1394658535718918,0.02206522226333618,XArbitraryZVertical,0.1180646726994431,-0.06932183476677313,0.1960287910124021,0.9709932636206835,-0.1809102147817612,-0.202101856470108,-0.9625104069709778,40775.39722125,unknown,2,2020-03-09 10:18:38.401 +0100,605438356.5645143,0,44260.89,100.3775
2020-03-09 10:19:18.631 +0100,1583745557.999743,52.56389888813202,13.41043298724925,47.29099,0,219.6548204143325,3.520369933348619,21.55314511680214,-9999,40815.6255155,-0.181427001953125,0.0002593994140625,-0.936279296875,40815.6204905,0.4030233504235612,-0.1792904580708132,0.1939951854661246,-0.6481590270996094,0.1942281275987625,-0.7615292072296143,-0.04182463884353638,0.1972375512123108,-0.001360416412353516,XArbitraryZVertical,0.1123392056593923,-0.06799550613974695,0.1899152335769551,0.9729792458981307,-0.1749862879514694,-0.1927806735038757,-0.9655130505561829,40775.39722125,unknown,2,2020-03-09 10:18:38.401 +0100,605438356.5645143,0,44260.89,100.3775
2020-03-09 10:19:18.646 +0100,1583745557.999743,52.56389888813202,13.41043298724925,47.29099,0,219.6548204143325,3.520369933348619,21.55314511680214,-9999,40815.64058850001,-0.122894287109375,-0.1277923583984375,-0.9115753173828125,40815.6355635,0.3901915007102859,-0.1744029974944576,0.1877720063967023,-0.4938174784183502,0.1293463855981827,-0.7655659914016724,-0.004440128803253174,0.1548877507448196,0.03389501571655273,XArbitraryZVertical,0.1084293643738443,-0.06695755430525037,0.1842636259931174,0.9745801499311698,-0.1704701781272888,-0.1866705268621445,-0.9675195217132568,40775.39722125,unknown,2,2020-03-09 10:18:38.401 +0100,605438356.5645143,0,44260.89,100.3775
2020-03-09 10:19:18.661 +0100,1583745557.999743,52.56389888813202,13.41043298724925,47.29099,0,219.6548204143325,3.520369933348619,21.55314511680214,-9999,40815.6556605,-0.0641326904296875,-0.29046630859375,-0.8418121337890625,40815.6506365,0.3764842761536694,-0.169928771371163,0.1813236448076283,-0.6907074451446533,0.1625844389200211,-0.8554977774620056,0.04344655573368073,0.05254055559635162,0.05786323547363281,XArbitraryZVertical,0.1044327235365033,-0.06613930037337638,0.1781440688430658,0.9762089748362722,-0.1663396954536438,-0.18033167719841,-0.9694387912750244,40775.39722125,unknown,2,2020-03-09 10:18:38.401 +0100,605438356.5645143,0,44260.89,100.3775
2020-03-09 10:19:18.677 +0100,1583745557.999743,52.56389888813202,13.41043298724925,47.29099,0,219.6548204143325,3.520369933348619,21.55314511680214,-9999,40815.6707335,-0.143707275390625,-0.37225341796875,-0.869842529296875,40815.6657095,0.3606965308972492,-0.1643307801329491,0.1711073550709428,-1.028651118278503,0.1804870069026947,-0.9382355213165283,0.07197092473506927,-0.1570872515439987,0.1110526919364929,XArbitraryZVertical,0.09844764006024648,-0.06517101264516385,0.1712138912110653,0.9781341768334254,-0.1612031906843185,-0.170273631811142,-0.9721215963363647,40775.39722125,unknown,2,2020-03-09 10:18:38.401 +0100,605438356.5645143,0,44260.89,100.3775
2020-03-09 10:19:18.692 +0100,1583745557.999743,52.56389888813202,13.41043298724925,47.29099,0,219.6548204143325,3.520369933348619,21.55314511680214,-9999,40815.68580650001,-0.2094879150390625,-0.3816986083984375,-0.902801513671875,40815.6807825,0.3434209378125127,-0.1591232365862735,0.1548629454939332,-1.406828880310059,0.1903854459524155,-0.9313557744026184,0.01285010576248169,-0.2180076986551285,0.1057077646255493,XArbitraryZVertical,0.08951494939941589,-0.06489873964856401,0.1637595295391357,0.9802846436927344,-0.1565563231706619,-0.1542446911334991,-0.9755504727363586,40775.39722125,unknown,2,2020-03-09 10:18:38.401 +0100,605438356.5645143,0,44260.89,100.3775
2020-03-09 10:19:18.707 +0100,1583745557.999743,52.56389888813202,13.41043298724925,47.29099,0,219.6548204143325,3.520369933348619,21.55314511680214,-9999,40815.7008795,-0.2095947265625,-0.14166259765625,-1.014801025390625,40815.6958555,0.3266162056734437,-0.1534796246702225,0.1361283021692218,-1.295775413513184,0.1986308693885803,-0.8711445927619934,-0.06727024912834167,-0.1725031137466431,0.04178565740585327,XArbitraryZVertical,0.07934471155641939,-0.06444433016625237,0.1565846445388587,0.9823606591150352,-0.1514634788036346,-0.1357082575559616,-0.9791026711463928,40775.39722125,unknown,2,2020-03-09 10:18:38.401 +0100,605438356.5645143,0,44260.89,100.3775
2020-03-09 10:19:18.737 +0100,1583745557.999743,52.56389888813202,13.41043298724925,47.29099,0,219.6548204143325,3.520369933348619,21.55314511680214,-9999,40815.7159525,-0.1981658935546875,0.0192413330078125,-1.14190673828125,40815.7109285,0.3118664445202315,-0.1494758596548653,0.125072523506962,-0.4049626886844635,0.05672184377908707,-0.8132222294807434,-0.06183719635009766,-0.01691510528326035,-0.0336761474609375,XArbitraryZVertical,0.07313839276855444,-0.06393964716056308,0.1499559780072152,0.9839083818396024,-0.1477565914392471,-0.1247466877102852,-0.9811249971389771,40775.39722125,unknown,2,2020-03-09 10:18:38.401 +0100,605438356.5645143,0,44260.89,100.3775
2020-03-09 10:19:18.739 +0100,1583745557.999743,52.56389888813202,13.41043298724925,47.29099,0,219.6548204143325,3.520369933348619,21.55314511680214,-9999,40815.7310255,-0.2174835205078125,-0.05633544921875,-1.1741943359375,40815.7260015,0.3002184641651407,-0.1483609071154955,0.1253103789235563,0.107560008764267,-0.05165655910968781,-0.7143571972846985,-0.04750891029834747,0.1468951553106308,-0.1765773296356201,XArbitraryZVertical,0.07280132241385721,-0.06379728209896869,0.1442539423627431,0.9847946354147101,-0.1466581970453262,-0.1249826848506927,-0.9812597632408142,40775.39722125,unknown,2,2020-03-09 10:18:38.401 +0100,605438356.5645143,0,44260.89,100.3775
2020-03-09 10:19:18.752 +0100,1583745557.999743,52.56389888813202,13.41043298724925,47.29099,0,219.6548204143325,3.520369933348619,21.55314511680214,-9999,40815.7460985,-0.240203857421875,-0.1765289306640625,-1.183563232421875,40815.7410745,0.29000363720953,-0.1476024068172378,0.129004057144429,0.1007090657949448,-0.01827537454664707,-0.6935270428657532,-0.0716376006603241,0.07231192290782928,-0.1932870745658875,XArbitraryZVertical,0.07423927723780006,-0.06352035591307614,0.1390984170450124,0.9854466992820557,-0.1458449810743332,-0.1286465376615524,-0.9809073805809021,40775.39722125,unknown,2,2020-03-09 10:18:38.401 +0100,605438356.5645143,0,44260.89,100.3775
2020-03-09 10:19:18.767 +0100,1583745557.999743,52.56389888813202,13.41043298724925,47.29099,0,219.6548204143325,3.520369933348619,21.55314511680214,-9999,40815.7611715,-0.1860504150390625,-0.3079833984375,-1.174850463867188,40815.7561465,0.2795328822247732,-0.1459697767439568,0.1295418626054722,-0.2211735993623734,0.04720441624522209,-0.6937156915664673,-0.08661608397960663,-0.0852053165435791,-0.2012975811958313,XArbitraryZVertical,0.0740611895285728,-0.06306457697373494,0.1339758444535119,0.9861988329434153,-0.1442332416772842,-0.1291798502206802,-0.9810755848884583,40775.39722125,unknown,2,2020-03-09 10:18:38.401 +0100,605438356.5645143,0,44260.89,100.3775
2020-03-09 10:19:18.782 +0100,1583745557.999743,52.56389888813202,13.41043298724925,47.29099,0,219.6548204143325,3.520369933348619,21.55314511680214,-9999,40815.7762445,-0.0961151123046875,-0.3624267578125,-1.010147094726562,40815.77121950001,0.2678568853292172,-0.1436827544953639,0.12696507950049,-0.2991706430912018,0.05962539091706276,-0.7873742580413818,-0.04401324689388275,-0.1813583821058273,-0.1931214928627014,XArbitraryZVertical,0.07227493395927731,-0.06254433270209719,0.1284027984424036,0.9871055259657401,-0.1420363187789917,-0.1266242414712906,-0.9817290902137756,40775.39722125,unknown,2,2020-03-09 10:18:38.401 +0100,605438356.5645143,0,44260.89,100.3775
2020-03-09 10:19:18.797 +0100,1583745557.999743,52.56389888813202,13.41043298724925,47.29099,0,219.6548204143325,3.520369933348619,21.55314511680214,-9999,40815.7913165,-0.091094970703125,-0.275360107421875,-0.912994384765625,40815.7862925,0.2541643191311048,-0.1408447849866462,0.1251047720573145,-0.1517169922590256,0.08039963990449905,-0.9605697393417358,0.05613817274570465,-0.2152168750762939,0.02027773857116699,XArbitraryZVertical,0.07075435358301049,-0.0617571649882103,0.1218158655100131,0.988099567163233,-0.1392824649810791,-0.124778687953949,-0.982359766960144,40775.39722125,unknown,2,2020-03-09 10:18:38.401 +0100,605438356.5645143,0,44260.89,100.3775
2020-03-09 10:19:18.812 +0100,1583745557.999743,52.56389888813202,13.41043298724925,47.29099,0,219.6548204143325,3.520369933348619,21.55314511680214,-9999,40815.8063895,-0.120147705078125,-0.1713409423828125,-0.8325042724609375,40815.8013655,0.2398521814208866,-0.1383943865704175,0.1253115422043962,-0.2361889034509659,-0.02011499553918839,-0.8445109128952026,0.04577721655368805,-0.1503754556179047,0.06967800855636597,XArbitraryZVertical,0.07027211762168455,-0.06103744213899504,0.1148201040775362,0.9890159454470314,-0.1368713080883026,-0.1249838396906853,-0.9826725125312805,40775.39722125,unknown,2,2020-03-09 10:18:38.401 +0100,605438356.5645143,0,44260.89,100.3775
2020-03-09 10:19:18.827 +0100,1583745557.999743,52.56389888813202,13.41043298724925,47.29099,0,219.6548204143325,3.520369933348619,21.55314511680214,-9999,40815.8214625,-0.1540985107421875,-0.1394805908203125,-0.7669219970703125,40815.81643850001,0.2280493919391906,-0.1373300705105262,0.1205542986889716,-0.509543776512146,-0.01740907691419125,-0.6480156183242798,0.004634708166122437,-0.03818399459123611,0.163403332233429,XArbitraryZVertical,0.06750067078772401,-0.06120385367182634,0.109197171203662,0.9898351765352944,-0.1359052211046219,-0.1202625036239624,-0.983395516872406,40775.39722125,unknown,2,2020-03-09 10:18:38.401 +0100,605438356.5645143,0,44260.89,100.3775
2020-03-09 10:19:18.842 +0100,1583745557.999743,52.56389888813202,13.41043298724925,47.29099,0,219.6548204143325,3.520369933348619,21.55314511680214,-9999,40815.83653550001,-0.214569091796875,-0.05804443359375,-0.8966217041015625,40815.8315115,0.2162910716620026,-0.1360726712704218,0.1166774421303474,-0.1533968448638916,-0.04261212423443794,-0.8555055260658264,-0.01936687529087067,-0.02306698262691498,0.21709805727005,XArbitraryZVertical,0.06515625358511468,-0.06119306642925032,0.1035612645609538,0.9905983234028199,-0.1347308307886124,-0.1164128854870796,-0.9840201139450073,40775.39722125,unknown,2,2020-03-09 10:18:38.401 +0100,605438356.5645143,0,44260.89,100.3775
2020-03-09 10:19:18.857 +0100,1583745557.999743,52.56389888813202,13.41043298724925,47.29099,0,219.6548204143325,3.520369933348619,21.55314511680214,-9999,40815.8516085,-0.1860198974609375,-0.0439453125,-1.036544799804688,40815.8465845,0.2033623808754938,-0.1358247332261764,0.1199095422876674,0.3040761649608612,-0.1258635967969894,-0.7981458306312561,-0.0850922018289566,0.07523532211780548,0.03274774551391602,XArbitraryZVertical,0.06634780952277136,-0.06132026846373163,0.09704501809522362,0.9911710248811834,-0.1344351917505264,-0.1196224018931389,-0.9836755990982056,40775.39722125,unknown,2,2020-03-09 10:18:38.401 +0100,605438356.5645143,0,44260.89,100.3775
2020-03-09 10:19:18.872 +0100,1583745557.999743,52.56389888813202,13.41043298724925,47.29099,0,219.6548204143325,3.520369933348619,21.55314511680214,-9999,40815.8666815,-0.133392333984375,-0.0913848876953125,-1.083663940429688,40815.86165750001,0.1942218443659959,-0.1368769986244955,0.1270986510844055,0.448790043592453,-0.1494271010160446,-0.5763031244277954,-0.05066975951194763,0.08281217515468597,-0.05388867855072021,XArbitraryZVertical,0.0696764989768773,-0.06178241861520967,0.09221368119766632,0.9913751734700301,-0.1353493630886078,-0.1267567276954651,-0.9826562404632568,40775.39722125,unknown,2,2020-03-09 10:18:38.401 +0100,605438356.5645143,0,44260.89,100.3775
2020-03-09 10:19:18.888 +0100,1583745557.999743,52.56389888813202,13.41043298724925,47.29099,0,219.6548204143325,3.520369933348619,21.55314511680214,-9999,40815.88175450001,-0.131622314453125,-0.1233062744140625,-1.039352416992188,40815.8767305,0.1854195389943526,-0.1376815772306059,0.1354197070174091,0.4583731591701508,-0.108031153678894,-0.7507572770118713,0.00510135293006897,0.03010280430316925,-0.09410864114761353,XArbitraryZVertical,0.07356146028894539,-0.06208533428419222,0.0875121382929597,0.9915017152310565,-0.1359904706478119,-0.1350061893463135,-0.9814682602882385,40775.39722125,unknown,2,2020-03-09 10:18:38.401 +0100,605438356.5645143,0,44260.89,100.3775
2020-03-09 10:19:18.903 +0100,1583745557.999743,52.56389888813202,13.41043298724925,47.29099,0,219.6548204143325,3.520369933348619,21.55314511680214,-9999,40815.8968275,-0.1497039794921875,-0.149810791015625,-0.963897705078125,40815.8918025,0.1739515682418677,-0.1374745447295689,0.142140396642406,0.1723625957965851,-0.07332853972911835,-0.8179500102996826,0.004038318991661072,0.0183568000793457,-0.0587770938873291,XArbitraryZVertical,0.07652609468690844,-0.06209697279299017,0.08158348726276561,0.991782111541054,-0.135659858584404,-0.1416622549295425,-0.9805754423141479,40775.39722125,unknown,2,2020-03-09 10:18:38.401 +0100,605438356.5645143,0,44260.89,100.3775
2020-03-09 10:19:18.918 +0100,1583745557.999743,52.56389888813202,13.41043298724925,47.29099,0,219.6548204143325,3.520369933348619,21.55314511680214,-9999,40815.9119005,-0.139495849609375,-0.166473388671875,-0.9053497314453125,40815.9068755,0.1622801289306228,-0.1367326251084119,0.1431698286016732,-0.2228909879922867,-0.06104177609086037,-0.7259692549705505,-0.01659137010574341,-0.01500226557254791,0.03674411773681641,XArbitraryZVertical,0.07664461403189982,-0.06213040101275456,0.07578469517503558,0.9922307799991184,-0.134912371635437,-0.1426812261343002,-0.980530858039856,40775.39722125,unknown,2,2020-03-09 10:18:38.401 +0100,605438356.5645143,0,44260.89,100.3775
2020-03-09 10:19:18.933 +0100,1583745557.999743,52.56389888813202,13.41043298724925,47.29099,0,219.6548204143325,3.520369933348619,21.55314511680214,-9999,40815.9269725,-0.13720703125,-0.1767578125,-0.9075775146484375,40815.9219485,0.1504446937024103,-0.136020776282127,0.1400929971696733,-0.3362408876419067,-0.06084319204092026,-0.7829993963241577,-0.005221843719482422,-0.02683737874031067,0.0757070779800415,XArbitraryZVertical,0.07472458721113003,-0.06235198830882841,0.07005095475350018,0.9927845672142093,-0.1342732459306717,-0.1396352052688599,-0.9810569286346436,40775.39722125,unknown,2,2020-03-09 10:18:38.401 +0100,605438356.5645143,0,44260.89,100.3775
2020-03-09 10:19:18.948 +0100,1583745557.999743,52.56389888813202,13.41043298724925,47.29099,0,219.6548204143325,3.520369933348619,21.55314511680214,-9999,40815.9420455,-0.144683837890625,-0.158935546875,-0.9547576904296875,40815.9370215,0.1371163086803912,-0.1353130520825371,0.1384191435577754,-0.07470203191041946,-0.09015620499849319,-0.9143834710121155,-0.006830900907516479,-0.03714676201343536,0.05141967535018921,XArbitraryZVertical,0.07345419485639262,-0.06255810160868489,0.063519922872419,0.9933055794610121,-0.1336102336645126,-0.1379775553941727,-0.9813819527626038,40775.39722125,unknown,2,2020-03-09 10:18:38.401 +0100,605438356.5645143,0,44260.89,100.3775
2020-03-09 10:19:18.963 +0100,1583745557.999743,52.56389888813202,13.41043298724925,47.29099,0,219.6548204143325,3.520369933348619,21.55314511680214,-9999,40815.9571185,-0.1449432373046875,-0.169921875,-1.009552001953125,40815.9520945,0.1232824697065201,-0.135126832308064,0.1417227671810049,0.2560400664806366,-0.1431504189968109,-0.9261425733566284,-0.01131777465343475,-0.01768593490123749,0.02619194984436035,XArbitraryZVertical,0.07465485240950939,-0.06286308629028192,0.05653650116808072,0.993618843642789,-0.1333653479814529,-0.1412488222122192,-0.9809497594833374,40775.39722125,unknown,2,2020-03-09 10:18:38.401 +0100,605438356.5645143,0,44260.89,100.3775
2020-03-09 10:19:18.978 +0100,1583745557.999743,52.56389888813202,13.41043298724925,47.29099,0,219.6548204143325,3.520369933348619,21.55314511680214,-9999,40815.9721915,-0.1750946044921875,-0.2019195556640625,-1.038619995117188,40815.9671675,0.1100989054474156,-0.1354414319764585,0.148738777932779,0.394421398639679,-0.1495033949613571,-0.9249494671821594,-0.02028632164001465,-0.03300637006759644,-0.04245251417160034,XArbitraryZVertical,0.07773121475295368,-0.06330091054757746,0.04972354995169513,0.9937194890964192,-0.1335368454456329,-0.1481909602880478,-0.9799017310142517,40775.39722125,unknown,2,2020-03-09 10:18:38.401 +0100,605438356.5645143,0,44260.89,100.3775
2020-03-09 10:19:18.993 +0100,1583745557.999743,52.56389888813202,13.41043298724925,47.29099,0,219.6548204143325,3.520369933348619,21.55314511680214,-9999,40815.9872645,-0.1780548095703125,-0.208038330078125,-1.007156372070312,40815.9822405,0.09671504043284053,-0.1352749291284951,0.1557103632917701,0.2449962198734283,-0.08732501417398453,-0.9331912994384766,-0.04186280071735382,-0.04683680832386017,-0.05974370241165161,XArbitraryZVertical,0.08076511955508391,-0.06355138818081553,0.04283160198411023,0.9937824881371271,-0.1332311183214188,-0.1550819128751755,-0.9788764119148254,40775.39722125,unknown,2,2020-03-09 10:18:38.401 +0100,605438356.5645143,0,44260.89,100.3775
2020-03-09 10:19:19.008 +0100,1583745557.999743,52.56389888813202,13.41043298724925,47.29099,0,219.6548204143325,3.520369933348619,21.55314511680214,-9999,40816.0023375,-0.164794921875,-0.19708251953125,-1.00738525390625,40815.9973135,0.08265972620318744,-0.133720826999183,0.1594073413519399,-0.004812352824956179,-0.003417966887354851,-0.9644431471824646,-0.04289700090885162,-0.04817524552345276,-0.02658915519714355,XArbitraryZVertical,0.08212530824587806,-0.06325927586427284,0.03578003302086415,0.9939684326749204,-0.1316323429346085,-0.1587330847978592,-0.978507399559021,40775.39722125,unknown,2,2020-03-09 10:18:38.401 +0100,605438356.5645143,0,44260.89,100.3775
2020-03-09 10:19:19.023 +0100,1583745557.999743,52.56389888813202,13.41043298724925,47.29099,0,219.6548204143325,3.520369933348619,21.55314511680214,-9999,40816.0174105,-0.1353607177734375,-0.150115966796875,-1.004013061523438,40816.01238650001,0.06770379534622493,-0.1311781975891348,0.1598819315396703,-0.1646355539560318,0.01941812224686146,-0.9721387624740601,-0.03566020727157593,-0.0378800630569458,-0.02862125635147095,XArbitraryZVertical,0.08184970718647754,-0.06259839458092366,0.0284338830400411,0.9942703618224982,-0.1291340738534927,-0.1592016518115997,-0.9787641167640686,40775.39722125,unknown,2,2020-03-09 10:18:38.401 +0100,605438356.5645143,0,44260.89,100.3775
2020-03-09 10:19:19.038 +0100,1583745557.999743,52.56389888813202,13.41043298724925,47.29099,0,219.6548204143325,3.520369933348619,21.55314511680214,-9999,40816.0324835,-0.1243743896484375,-0.14825439453125,-1.052871704101562,40816.0274585,0.05278452845889267,-0.1283852236100278,0.1597178337014472,-0.0665513351559639,0.03505753725767136,-0.9658137559890747,-0.003845155239105225,0.02018548548221588,-0.03518122434616089,XArbitraryZVertical,0.08126947471346065,-0.06182099163060441,0.02113531261960003,0.994548386995027,-0.1264032423496246,-0.159039631485939,-0.9791468977928162,40775.39722125,unknown,2,2020-03-09 10:18:38.401 +0100,605438356.5645143,0,44260.89,100.3775
2020-03-09 10:19:19.053 +0100,1583745557.999743,52.56389888813202,13.41043298724925,47.29099,0,219.6548204143325,3.520369933348619,21.55314511680214,-9999,40816.0475565,-0.11737060546875,-0.2271881103515625,-1.08636474609375,40816.0425315,0.03816552316962873,-0.1257209104384804,0.1623077043306313,0.1575308442115784,0.003135168924927711,-0.9743106961250305,-0.0006318166851997375,0.01334239542484283,-0.07380354404449463,XArbitraryZVertical,0.08208471552817999,-0.06105713196956258,0.01388975170963349,0.994656220714097,-0.1237419843673706,-0.1615960150957108,-0.9790682792663574,40775.39722125,unknown,2,2020-03-09 10:18:38.401 +0100,605438356.5645143,0,44260.89,100.3775
2020-03-09 10:19:19.068 +0100,1583745557.999743,52.56389888813202,13.41043298724925,47.29099,0,219.6548204143325,3.520369933348619,21.55314511680214,-9999,40816.0626285,-0.116455078125,-0.293792724609375,-1.046600341796875,40816.05760450001,0.02408965428199269,-0.1233970277147893,0.1673837631394224,0.2711850702762604,0.01887943595647812,-0.9309294819831848,0.007976390421390533,-0.08775995671749115,-0.09734028577804565,XArbitraryZVertical,0.08416917231204012,-0.06043417295230617,0.006825547361726197,0.994593613267519,-0.1213638857007027,-0.1666032522916794,-0.9785265326499939,40775.39722125,unknown,2,2020-03-09 10:18:38.401 +0100,605438356.5645143,0,44260.89,100.3775
2020-03-09 10:19:19.084 +0100,1583745557.999743,52.56389888813202,13.41043298724925,47.29099,0,219.6548204143325,3.520369933348619,21.55314511680214,-9999,40816.07770150001,-0.1055450439453125,-0.307037353515625,-1.023590087890625,40816.0726775,0.01083670253293,-0.1205255882589239,0.1737016843314754,0.3271064460277557,0.06008261814713478,-0.9003129005432129,0.001970142126083374,-0.1209624260663986,-0.06879395246505737,XArbitraryZVertical,0.08690806489394241,-0.05952930167997517,0.0001640464614355071,0.9944361128696605,-0.118424691259861,-0.1728295087814331,-0.9778065085411072,40775.39722125,unknown,2,2020-03-09 10:18:38.401 +0100,605438356.5645143,0,44260.89,100.3775
2020-03-09 10:19:19.099 +0100,1583745557.999743,52.56389888813202,13.41043298724925,47.29099,0,219.6548204143325,3.520369933348619,21.55314511680214,-9999,40816.0927745,-0.0807342529296875,-0.3260040283203125,-0.9902191162109375,40816.0877505,-0.002152928254125238,-0.1173950528556811,0.1796168099161954,0.236685186624527,0.05519332364201546,-0.8762957453727722,0.01847057044506073,-0.1316798776388168,-0.03257989883422852,XArbitraryZVertical,0.08947032757483155,-0.05852375732605388,-0.006331702871337826,0.994248349603285,-0.1152412965893745,-0.1786525547504425,-0.9771400690078735,40775.39722125,unknown,2,2020-03-09 10:18:38.401 +0100,605438356.5645143,0,44260.89,100.3775
2020-03-09 10:19:19.114 +0100,1583745557.999743,52.56389888813202,13.41043298724925,47.29099,0,219.6548204143325,3.520369933348619,21.55314511680214,-9999,40816.1078475,-0.060699462890625,-0.33868408203125,-0.94000244140625,40816.1028235,-0.01525403787772836,-0.1144051419664574,0.1835946402351419,0.07574670761823654,0.0254795178771019,-0.8900271654129028,0.03150346875190735,-0.1434382200241089,-0.01345270872116089,XArbitraryZVertical,0.09108165448820173,-0.05762702193831012,-0.01282307185172353,0.9940918585961427,-0.1122372150421143,-0.1825649738311768,-0.9767665266990662,40775.39722125,unknown,2,2020-03-09 10:18:38.401 +0100,605438356.5645143,0,44260.89,100.3775
2020-03-09 10:19:19.129 +0100,1583745557.999743,52.56389888813202,13.41043298724925,47.29099,0,219.6548204143325,3.520369933348619,21.55314511680214,-9999,40816.12292050001,-0.0580596923828125,-0.32269287109375,-0.971893310546875,40816.1178965,-0.02892534095928325,-0.1116616248854862,0.1848041221895261,-0.0943213477730751,0.01448856480419636,-0.8951813578605652,0.05342623591423035,-0.1561347246170044,0.04139518737792969,XArbitraryZVertical,0.09131365043142099,-0.05689030315636678,-0.01952636230221668,0.9940040311625139,-0.1095323339104652,-0.1837539970874786,-0.9768506288528442,40775.39722125,unknown,2,2020-03-09 10:18:38.401 +0100,605438356.5645143,0,44260.89,100.3775
2020-03-09 10:19:19.144 +0100,1583745557.999743,52.56389888813202,13.41043298724925,47.29099,0,219.6548204143325,3.520369933348619,21.55314511680214,-9999,40816.1379935,-0.071044921875,-0.26641845703125,-1.018646240234375,40816.1329695,-0.04259080328934796,-0.1091514040069136,0.1854606601740182,0.02883741073310375,-0.01192878000438213,-0.881992518901825,0.04900746792554855,-0.1382927596569061,0.005108952522277832,XArbitraryZVertical,0.09128211386437277,-0.05627076047043119,-0.02622066208377086,0.9938880285871744,-0.1070667132735252,-0.1843993067741394,-0.9770023822784424,40775.39722125,unknown,2,2020-03-09 10:18:38.401 +0100,605438356.5645143,0,44260.89,100.3775
2020-03-09 10:19:19.159 +0100,1583745557.999743,52.56389888813202,13.41043298724925,47.29099,0,219.6548204143325,3.520369933348619,21.55314511680214,-9999,40816.1530665,-0.0750732421875,-0.256622314453125,-1.043716430664062,40816.1480425,-0.05545912072924444,-0.1071847542998817,0.1893060815472528,0.2878670990467072,-0.04047041013836861,-0.8421457409858704,0.0286528542637825,-0.06580436229705811,-0.05601781606674194,XArbitraryZVertical,0.0928612544547683,-0.05592312220590601,-0.03262301130662429,0.9935718534561914,-0.1050684526562691,-0.1881774216890335,-0.9764987826347351,40775.39722125,unknown,2,2020-03-09 10:18:38.401 +0100,605438356.5645143,0,44260.89,100.3775
2020-03-09 10:19:19.174 +0100,1583745557.999743,52.56389888813202,13.41043298724925,47.29099,0,219.6548204143325,3.520369933348619,21.55314511680214,-9999,40816.16813950001,-0.0555267333984375,-0.317352294921875,-1.015975952148438,40816.1631145,-0.06760798456739717,-0.105756131576621,0.1960453035926598,0.3951310813426971,-0.07497815787792206,-0.8278518915176392,0.02846422791481018,-0.06182964146137238,-0.06835192441940308,XArbitraryZVertical,0.09589539654787953,-0.05587266520960129,-0.03875788985157742,0.9930659615442897,-0.1035370752215385,-0.1947919279336929,-0.975364625453949,40775.39722125,unknown,2,2020-03-09 10:18:38.401 +0100,605438359.1326711,0,44260.88,100.3781
2020-03-09 10:19:19.189 +0100,1583745557.999743,52.56389888813202,13.41043298724925,47.29099,0,219.6548204143325,3.520369933348619,21.55314511680214,-9999,40816.1832125,-0.0269012451171875,-0.38128662109375,-0.925872802734375,40816.1781875,-0.07969836522944986,-0.1048057453042497,0.2024276443913867,0.2305433303117752,-0.1277135610580444,-0.8293310403823853,0.0564730167388916,-0.1380320936441422,-0.02011752128601074,XArbitraryZVertical,0.0987462761634732,-0.05608927793600652,-0.04486856752169265,0.9925169468238457,-0.1024779081344604,-0.2010480016469955,-0.9742063283920288,40775.39722125,unknown,2,2020-03-09 10:18:38.401 +0100,605438359.1326711,0,44260.88,100.3781
2020-03-09 10:19:19.204 +0100,1583745557.999743,52.56389888813202,13.41043298724925,47.29099,0,219.6548204143325,3.520369933348619,21.55314511680214,-9999,40816.1982855,-0.0240631103515625,-0.39752197265625,-0.8792877197265625,40816.1932605,-0.09244678448747413,-0.1039692012911461,0.2051723228628072,-0.04193476587533951,-0.09352859854698181,-0.8554741740226746,0.07470434159040451,-0.1775500774383545,0.0478663444519043,XArbitraryZVertical,0.09977040913184605,-0.05635829748232611,-0.05121739009783197,0.992091860607522,-0.1016052588820457,-0.2037358731031418,-0.9737392067909241,40775.39722125,unknown,2,2020-03-09 10:18:38.401 +0100,605438359.1326711,0,44260.88,100.3781
2020-03-09 10:19:19.239 +0100,1583745558.999743,52.56387406433634,13.4104013145498,47.16694,2.204357,219.0827161785362,1.276399502076674,24.65566435954675,-9999,40816.2133575,-0.022857666015625,-0.33538818359375,-0.9358673095703125,40816.2083335,-0.1060221176404183,-0.1021948450293085,0.2045084077284461,-0.1977153122425079,-0.04959975555539131,-0.8916600942611694,0.07634710520505905,-0.1767658144235611,0.08547192811965942,XArbitraryZVertical,0.09910752496157726,-0.05613859984705473,-0.05784690288742051,0.9918063654728128,-0.09989111125469208,-0.2030858397483826,-0.9740523099899292,40775.39722125,unknown,2,2020-03-09 10:18:38.401 +0100,605438359.1326711,0,44260.88,100.3781
2020-03-09 10:19:19.241 +0100,1583745558.999743,52.56387406433634,13.4104013145498,47.16694,2.204357,219.0827161785362,1.276399502076674,24.65566435954675,-9999,40816.2284305,-0.01324462890625,-0.264923095703125,-1.055709838867188,40816.2234065,-0.1199662993771842,-0.1000291618147538,0.2035483995295974,-0.06639793515205383,-0.04888980090618134,-0.8936036229133606,0.07494344562292099,-0.1332418173551559,0.03859251737594604,XArbitraryZVertical,0.09830758372561622,-0.05572852743151867,-0.06463257369415486,0.9914900603066644,-0.09780082106590271,-0.2021457403898239,-0.9744598865509033,40775.39722125,unknown,2,2020-03-09 10:18:38.401 +0100,605438359.1326711,0,44260.88,100.3781
2020-03-09 10:19:19.249 +0100,1583745558.999743,52.56387406433634,13.4104013145498,47.16694,2.204357,219.0827161785362,1.276399502076674,24.65566435954675,-9999,40816.2435035,-0.019378662109375,-0.2310943603515625,-1.147003173828125,40816.2384795,-0.1334410811592641,-0.09839654481076308,0.206303446636567,0.2713301479816437,-0.1121383234858513,-0.8819809556007385,0.08526020497083664,-0.04562923312187195,-0.1180723309516907,XArbitraryZVertical,0.09935412887650427,-0.05566492385120467,-0.07128900611829889,0.9909328801719335,-0.09615468978881836,-0.204843133687973,-0.9740603566169739,40775.39722125,unknown,2,2020-03-09 10:18:38.401 +0100,605438359.1326711,0,44260.88,100.3781
2020-03-09 10:19:19.264 +0100,1583745558.999743,52.56387406433634,13.4104013145498,47.16694,2.204357,219.0827161785362,1.276399502076674,24.65566435954675,-9999,40816.2585765,-0.05279541015625,-0.2666168212890625,-1.118972778320312,40816.25355250001,-0.1461019907461549,-0.09760036757565721,0.2149325018593083,0.7019299864768982,-0.1273351460695267,-0.8646548390388489,0.07582496851682663,-0.01781222224235535,-0.1746621131896973,XArbitraryZVertical,0.1033063303000558,-0.05618918866957882,-0.07769686186974012,0.9900169518621541,-0.09520334005355835,-0.2132814824581146,-0.9723411798477173,40775.39722125,unknown,2,2020-03-09 10:18:38.401 +0100,605438359.1326711,0,44260.88,100.3781
2020-03-09 10:19:19.279 +0100,1583745558.999743,52.56387406433634,13.4104013145498,47.16694,2.204357,219.0827161785362,1.276399502076674,24.65566435954675,-9999,40816.2736495,-0.0279083251953125,-0.376434326171875,-1.023727416992188,40816.2686255,-0.1579685777007395,-0.09709195064044918,0.228549879091658,0.8579158186912537,-0.1546029895544052,-0.8361963033676147,0.04430907964706421,-0.07011058926582336,-0.1253179311752319,XArbitraryZVertical,0.1097330724325004,-0.05704643542119019,-0.08381131815200286,0.9887770005165354,-0.09441865980625153,-0.226565346121788,-0.9694086909294128,40775.39722125,unknown,2,2020-03-09 10:18:38.401 +0100,605438359.1326711,0,44260.88,100.3781
2020-03-09 10:19:19.295 +0100,1583745558.999743,52.56387406433634,13.4104013145498,47.16694,2.204357,219.0827161785362,1.276399502076674,24.65566435954675,-9999,40816.2887225,-0.0096588134765625,-0.4671630859375,-0.910797119140625,40816.2836985,-0.169738861572491,-0.09635101415809325,0.2404215898703665,0.4992894530296326,-0.1000152826309204,-0.8352031111717224,0.06552698463201523,-0.1383214294910431,-0.05699461698532104,XArbitraryZVertical,0.1152985482724777,-0.05779093325143889,-0.08981247587754854,0.9875727897551324,-0.09343501180410385,-0.2381121069192886,-0.966732919216156,40775.39722125,unknown,2,2020-03-09 10:18:38.401 +0100,605438359.1326711,0,44260.88,100.3781
2020-03-09 10:19:19.310 +0100,1583745558.999743,52.56387406433634,13.4104013145498,47.16694,2.204357,219.0827161785362,1.276399502076674,24.65566435954675,-9999,40816.3037955,-0.002532958984375,-0.4275360107421875,-0.8670806884765625,40816.29877050001,-0.1824157343416144,-0.09401292532512413,0.2450623905527236,-0.01896705478429794,0.01770033687353134,-0.8490734696388245,0.0868280827999115,-0.227414071559906,0.08702331781387329,XArbitraryZVertical,0.1173345870627794,-0.05756312507181557,-0.09601809577948865,0.9867621057184495,-0.09106973558664322,-0.2426168471574783,-0.9658381342887878,40775.39722125,unknown,2,2020-03-09 10:18:38.401 +0100,605438359.1326711,0,44260.88,100.3781
2020-03-09 10:19:19.325 +0100,1583745558.999743,52.56387406433634,13.4104013145498,47.16694,2.204357,219.0827161785362,1.276399502076674,24.65566435954675,-9999,40816.31886850001,-0.0490264892578125,-0.3079986572265625,-0.9822235107421875,40816.3138435,-0.1956315268385268,-0.08989369297466822,0.2446122331653775,-0.1149016544222832,0.08238541334867477,-0.8309195637702942,0.08456757664680481,-0.1853550672531128,0.09923297166824341,XArbitraryZVertical,0.1169403765703876,-0.05628551285939763,-0.1022879786989689,0.9862524115564917,-0.08710025250911713,-0.242180123925209,-0.9663137793540955,40775.39722125,unknown,2,2020-03-09 10:18:38.401 +0100,605438359.1326711,0,44260.88,100.3781
2020-03-09 10:19:19.340 +0100,1583745558.999743,52.56387406433634,13.4104013145498,47.16694,2.204357,219.0827161785362,1.276399502076674,24.65566435954675,-9999,40816.3339415,-0.087310791015625,-0.2556610107421875,-1.077484130859375,40816.3289165,-0.2079768836747395,-0.08569767975283676,0.2466210429857503,0.290571540594101,0.07017801702022552,-0.7696990966796875,0.01568147540092468,-0.03797516226768494,-0.05305737257003784,XArbitraryZVertical,0.1178089124749461,-0.05503647514036993,-0.1081586632902339,0.9855930747004491,-0.08300302922725677,-0.2441286444664001,-0.9661840796470642,40775.39722125,unknown,2,2020-03-09 10:18:38.401 +0100,605438359.1326711,0,44260.88,100.3781
2020-03-09 10:19:19.355 +0100,1583745558.999743,52.56387406433634,13.4104013145498,47.16694,2.204357,219.0827161785362,1.276399502076674,24.65566435954675,-9999,40816.3490135,-0.0679168701171875,-0.2947540283203125,-1.059814453125,40816.3439895,-0.2187475370936067,-0.08213337719424602,0.2553007893591809,0.7124504446983337,0.0570799931883812,-0.7066280841827393,-0.007928639650344849,-0.003123700618743896,-0.1131587028503418,XArbitraryZVertical,0.1219916991233672,-0.0543620587168433,-0.113371701934257,0.9845351099014978,-0.07938189804553986,-0.2525364458560944,-0.9643256068229675,40775.39722125,unknown,2,2020-03-09 10:18:38.401 +0100,605438359.1326711,0,44260.88,100.3781
2020-03-09 10:19:19.370 +0100,1583745558.999743,52.56387406433634,13.4104013145498,47.16694,2.204357,219.0827161785362,1.276399502076674,24.65566435954675,-9999,40816.36408650001,-0.0446319580078125,-0.356170654296875,-1.017929077148438,40816.3590625,-0.2282758882638344,-0.07850408344753171,0.2684089771933712,0.8853994607925415,0.1088739335536957,-0.6531369090080261,0.01805953681468964,-0.05337440967559814,-0.09035038948059082,XArbitraryZVertical,0.1283999196215326,-0.05386308257660206,-0.1179957579339141,0.9832034494305295,-0.07561544328927994,-0.2651977241039276,-0.9612244367599487,40775.39722125,unknown,2,2020-03-09 10:18:38.401 +0100,605438359.1326711,0,44260.88,100.3781
2020-03-09 10:19:19.385 +0100,1583745558.999743,52.56387406433634,13.4104013145498,47.16694,2.204357,219.0827161785362,1.276399502076674,24.65566435954675,-9999,40816.3791595,-0.0292816162109375,-0.3570709228515625,-0.9697723388671875,40816.3741355,-0.2371050014662464,-0.0737556830881185,0.2821168166776238,0.8053959012031555,0.1989997923374176,-0.6274793744087219,0.02614405751228333,-0.0777803361415863,-0.06007218360900879,XArbitraryZVertical,0.1351919279243628,-0.05286417568596213,-0.1221677843453123,0.9818367550062566,-0.07077578455209732,-0.2783893942832947,-0.957857072353363,40775.39722125,unknown,2,2020-03-09 10:18:38.401 +0100,605438359.1326711,0,44260.88,100.3781
2020-03-09 10:19:19.400 +0100,1583745558.999743,52.56387406433634,13.4104013145498,47.16694,2.204357,219.0827161785362,1.276399502076674,24.65566435954675,-9999,40816.3942325,-0.0060272216796875,-0.3811187744140625,-0.9305877685546875,40816.3892085,-0.2467213803671128,-0.06766101235873118,0.2937126212620277,0.6457021236419678,0.2364185452461243,-0.7086983323097229,0.04115470498800278,-0.07055285573005676,-0.003968536853790283,XArbitraryZVertical,0.1410167467127394,-0.051200901148608,-0.1265657432269708,0.9805476620067357,-0.06471406668424606,-0.2895078361034393,-0.954985499382019,40775.39722125,unknown,2,2020-03-09 10:18:38.401 +0100,605438359.1326711,0,44260.88,100.3781
2020-03-09 10:19:19.415 +0100,1583745558.999743,52.56387406433634,13.4104013145498,47.16694,2.204357,219.0827161785362,1.276399502076674,24.65566435954675,-9999,40816.4093055,-0.0007476806640625,-0.4230194091796875,-0.9020538330078125,40816.4042815,-0.2576649107830351,-0.06072770123863005,0.3031772374200059,0.5093878507614136,0.2605966627597809,-0.750460684299469,0.05189542472362518,-0.08256375789642334,0.02204549312591553,XArbitraryZVertical,0.1458325194021746,-0.04915443912419848,-0.1314910258851277,0.9792990846617529,-0.05792246013879776,-0.2985540330410004,-0.9526334404945374,40775.39722125,unknown,2,2020-03-09 10:18:38.401 +0100,605438359.1326711,0,44260.88,100.3781
2020-03-09 10:19:19.430 +0100,1583745558.999743,52.56387406433634,13.4104013145498,47.16694,2.204357,219.0827161785362,1.276399502076674,24.65566435954675,-9999,40816.4243785,-0.0182647705078125,-0.42230224609375,-0.89208984375,40816.4193545,-0.2691738794046248,-0.05292157508792458,0.3104904053990658,0.3933055400848389,0.3162046670913696,-0.7600935101509094,0.04533232748508453,-0.1243744492530823,0.05377113819122314,XArbitraryZVertical,0.1496630262068767,-0.04664325018667619,-0.1365748462628344,0.978147533294545,-0.05036754906177521,-0.3055256307125092,-0.950850784778595,40775.39722125,unknown,2,2020-03-09 10:18:38.401 +0100,605438359.1326711,0,44260.88,100.3781
2020-03-09 10:19:19.445 +0100,1583745558.999743,52.56387406433634,13.4104013145498,47.16694,2.204357,219.0827161785362,1.276399502076674,24.65566435954675,-9999,40816.4394515,-0.0135498046875,-0.387969970703125,-0.8852081298828125,40816.4344275,-0.2809247486119782,-0.04411435933925952,0.3169322219067959,0.4243756830692291,0.3685418665409088,-0.7619432806968689,0.02363907173275948,-0.11064812541008,0.05718147754669189,XArbitraryZVertical,0.1531624839319195,-0.04365185563390195,-0.1416593319995242,0.9770201168962058,-0.04190369322896004,-0.3116530478000641,-0.949271559715271,40775.39722125,unknown,2,2020-03-09 10:18:38.401 +0100,605438359.1326711,0,44260.88,100.3781
2020-03-09 10:19:19.460 +0100,1583745558.999743,52.56387406433634,13.4104013145498,47.16694,2.204357,219.0827161785362,1.276399502076674,24.65566435954675,-9999,40816.4545245,0.022705078125,-0.3916015625,-0.888519287109375,40816.44949950001,-0.2925147401310539,-0.0348613602136475,0.3248164075962037,0.572351336479187,0.3533701002597809,-0.7351710796356201,0.03159752860665321,-0.06430229544639587,0.06102490425109863,XArbitraryZVertical,0.1574378043920364,-0.04057810065592793,-0.1465850815821827,0.9757456660363613,-0.03303174674510956,-0.3191348016262054,-0.947133481502533,40775.39722125,unknown,2,2020-03-09 10:18:38.401 +0100,605438359.1326711,0,44260.88,100.3781
2020-03-09 10:19:19.475 +0100,1583745558.999743,52.56387406433634,13.4104013145498,47.16694,2.204357,219.0827161785362,1.276399502076674,24.65566435954675,-9999,40816.4695975,0.0409393310546875,-0.428741455078125,-0.8735809326171875,40816.4645725,-0.3040728216070167,-0.02635540952768365,0.33485628581628,0.6914618015289307,0.286131352186203,-0.762768566608429,0.04759383946657181,-0.06296703219413757,0.0556100606918335,XArbitraryZVertical,0.162742574692261,-0.03807991020544843,-0.1514912336786525,0.974225388689121,-0.02488868311047554,-0.3286334276199341,-0.9441295266151428,40775.39722125,unknown,2,2020-03-09 10:18:38.401 +0100,605438359.1326711,0,44260.88,100.3781
2020-03-09 10:19:19.490 +0100,1583745558.999743,52.56387406433634,13.4104013145498,47.16694,2.204357,219.0827161785362,1.276399502076674,24.65566435954675,-9999,40816.4846695,0.0550384521484375,-0.4835052490234375,-0.8664093017578125,40816.4796455,-0.3159689961336591,-0.01834905872132286,0.3451317196517779,0.6113020181655884,0.2545225322246552,-0.7479102611541748,0.06408008933067322,-0.1078300178050995,0.07331854104995728,XArbitraryZVertical,0.1681431680350069,-0.03593936759580028,-0.1565406130288409,0.9725898916860956,-0.01726606115698814,-0.3383206427097321,-0.9408724904060364,40775.39722125,unknown,2,2020-03-09 10:18:38.401 +0100,605438359.1326711,0,44260.88,100.3781
2020-03-09 10:19:19.505 +0100,1583745558.999743,52.56387406433634,13.4104013145498,47.16694,2.204357,219.0827161785362,1.276399502076674,24.65566435954675,-9999,40816.4997425,0.060455322265625,-0.5027313232421875,-0.8973541259765625,40816.49471850001,-0.3276693192695707,-0.01064825856354819,0.3534001170582822,0.4749651849269867,0.2390338927507401,-0.7368389368057251,0.06502850353717804,-0.1374145150184631,0.07173871994018555,XArbitraryZVertical,0.1725707857790423,-0.03384112871313159,-0.1614841278045933,0.9710803151909375,-0.009990022517740726,-0.3460898101329803,-0.9381482005119324,40775.39722125,unknown,2,2020-03-09 10:18:38.401 +0100,605438359.1326711,0,44260.88,100.3781
2020-03-09 10:19:19.520 +0100,1583745558.999743,52.56387406433634,13.4104013145498,47.16694,2.204357,219.0827161785362,1.276399502076674,24.65566435954675,-9999,40816.51481550001,0.0540008544921875,-0.4725799560546875,-0.9267425537109375,40816.5097915,-0.3395813145847118,-0.002888295240406437,0.360181406862584,0.4234564304351807,0.2410090565681458,-0.7535058856010437,0.06143404915928841,-0.1394678056240082,0.0287243127822876,XArbitraryZVertical,0.1763028567031305,-0.0316671180990199,-0.1664980368997633,0.9696353932722594,-0.002702957950532436,-0.3524439930915833,-0.9358289837837219,40775.39722125,unknown,2,2020-03-09 10:18:38.401 +0100,605438359.1326711,0,44260.88,100.3781
2020-03-09 10:19:19.536 +0100,1583745558.999743,52.56387406433634,13.4104013145498,47.16694,2.204357,219.0827161785362,1.276399502076674,24.65566435954675,-9999,40816.5298885,0.0499267578125,-0.485626220703125,-0.9520111083984375,40816.5248645,-0.3520127704846078,0.005458325633803263,0.3667765388287152,0.4604625999927521,0.2788935005664825,-0.7885740399360657,0.04890559241175652,-0.1139706373214722,0.00673145055770874,XArbitraryZVertical,0.1800139227159269,-0.02928937382811762,-0.1716722663833671,0.9681248145249651,0.005095256958156824,-0.3586082458496094,-0.9334742426872253,40775.39722125,unknown,2,2020-03-09 10:18:38.401 +0100,605438359.1326711,0,44260.88,100.3781
2020-03-09 10:19:19.551 +0100,1583745558.999743,52.56387406433634,13.4104013145498,47.16694,2.204357,219.0827161785362,1.276399502076674,24.65566435954675,-9999,40816.5449615,0.0677947998046875,-0.5234375,-0.8907012939453125,40816.53993750001,-0.3650117190558499,0.01389445357827213,0.3737668832860921,0.4502212405204773,0.2065912038087845,-0.8024725317955017,0.04042521119117737,-0.1299912929534912,-0.01580202579498291,XArbitraryZVertical,0.183946290799409,-0.02700755366871058,-0.1770605800193835,0.9664801573951715,0.01293474435806274,-0.3651248216629028,-0.9308686852455139,40775.39722125,unknown,2,2020-03-09 10:18:38.401 +0100,605438359.1326711,0,44260.88,100.3781
2020-03-09 10:19:19.566 +0100,1583745558.999743,52.56387406433634,13.4104013145498,47.16694,2.204357,219.0827161785362,1.276399502076674,24.65566435954675,-9999,40816.56003450001,0.0755767822265625,-0.554718017578125,-0.83563232421875,40816.5550105,-0.3779753452611621,0.02186221416278,0.3790300309529137,0.2583795487880707,0.2322823107242584,-0.7848262190818787,0.04748585075139999,-0.1534169614315033,0.0381004810333252,XArbitraryZVertical,0.1870341555270564,-0.02484428851170404,-0.1824675574997218,0.9649386359725594,0.02030890248715878,-0.3700195252895355,-0.928801953792572,40775.39722125,unknown,2,2020-03-09 10:18:38.401 +0100,605438359.1326711,0,44260.88,100.3781
2020-03-09 10:19:19.581 +0100,1583745558.999743,52.56387406433634,13.4104013145498,47.16694,2.204357,219.0827161785362,1.276399502076674,24.65566435954675,-9999,40816.5751075,0.08673095703125,-0.503509521484375,-0.833038330078125,40816.5700835,-0.3908286059478526,0.03051900993541946,0.3816693707937219,0.1678927838802338,0.2742880880832672,-0.7912606596946716,0.05076764523983002,-0.1750599443912506,0.1006616950035095,XArbitraryZVertical,0.188955816842896,-0.02212938658666934,-0.1877866026822208,0.9636089507690097,0.02831859141588211,-0.3724702298641205,-0.9276120066642761,40775.39722125,unknown,2,2020-03-09 10:18:38.401 +0100,605438359.1326711,0,44260.88,100.3781
2020-03-09 10:19:19.596 +0100,1583745558.999743,52.56387406433634,13.4104013145498,47.16694,2.204357,219.0827161785362,1.276399502076674,24.65566435954675,-9999,40816.590181375,0.096435546875,-0.4363250732421875,-0.900634765625,40816.585156375,-0.4037847912046024,0.0392600489196392,0.3846727548680863,0.299014151096344,0.2262081056833267,-0.7808380126953125,0.05034925043582916,-0.128252774477005,0.09316849708557129,XArbitraryZVertical,0.1910975541439071,-0.01944776981385567,-0.1931122514756822,0.9621908108294234,0.03638162836432457,-0.375255823135376,-0.9262070059776306,40775.39722125,unknown,2,2020-03-09 10:18:38.401 +0100,605438359.1326711,0,44260.88,100.3781
2020-03-09 10:19:19.611 +0100,1583745558.999743,52.56387406433634,13.4104013145498,47.16694,2.204357,219.0827161785362,1.276399502076674,24.65566435954675,-9999,40816.605254375,0.0975494384765625,-0.4661712646484375,-0.9590606689453125,40816.600229375,-0.4164278901496403,0.04699497545745501,0.3893883643344016,0.3583427369594574,0.1696377694606781,-0.741877555847168,0.05573628842830658,-0.05615219473838806,0.004213213920593262,XArbitraryZVertical,0.1940007302139626,-0.01742740443603568,-0.1983039429083339,0.9605912056010913,0.04346099495887756,-0.3796226382255554,-0.9241200089454651,40775.39722125,unknown,2,2020-03-09 10:18:38.401 +0100,605438359.1326711,0,44260.88,100.3781
2020-03-09 10:19:19.626 +0100,1583745558.999743,52.56387406433634,13.4104013145498,47.16694,2.204357,219.0827161785362,1.276399502076674,24.65566435954675,-9999,40816.620327375,0.07757568359375,-0.5274505615234375,-0.979644775390625,40816.615302375,-0.4283779488751819,0.05391507381540436,0.3935169409738272,0.2443925887346268,0.1621085107326508,-0.6971702575683594,0.04777931421995163,-0.08273151516914368,-0.03683662414550781,XArbitraryZVertical,0.1965735335654136,-0.01570741424258056,-0.203229182193182,0.9590673042235003,0.04977002367377281,-0.383438915014267,-0.922224223613739,40775.39722125,unknown,2,2020-03-09 10:18:38.401 +0100,605438359.1326711,0,44260.88,100.3781
2020-03-09 10:19:19.641 +0100,1583745558.999743,52.56387406433634,13.4104013145498,47.16694,2.204357,219.0827161785362,1.276399502076674,24.65566435954675,-9999,40816.635399375,0.08251953125,-0.4969482421875,-0.9847259521484375,40816.630375375,-0.4396068818782622,0.06107939968164192,0.3957417794559364,0.1370522975921631,0.2166790664196014,-0.6697559356689453,0.01781874150037766,-0.1416517198085785,-0.0606842041015625,XArbitraryZVertical,0.1982909227281324,-0.01362356319310832,-0.2078254179154247,0.9577596697645079,0.0563235878944397,-0.385492742061615,-0.9209902286529541,40775.39722125,unknown,2,2020-03-09 10:18:38.401 +0100,605438359.1326711,0,44260.88,100.3781
2020-03-09 10:19:19.656 +0100,1583745558.999743,52.56387406433634,13.4104013145498,47.16694,2.204357,219.0827161785362,1.276399502076674,24.65566435954675,-9999,40816.650472375,0.102783203125,-0.4279327392578125,-0.9626312255859375,40816.64544837501,-0.4508943006296107,0.06910718894039937,0.3973979738598821,0.1843401491641998,0.2558543384075165,-0.6961559653282166,0.01884835213422775,-0.1099269092082977,-0.06485593318939209,XArbitraryZVertical,0.1998547475265215,-0.01108962365985766,-0.2123663046339274,0.9564703412935939,0.06367103755474091,-0.3870204091072083,-0.9198701977729797,40775.39722125,unknown,2,2020-03-09 10:18:38.401 +0100,605438359.1326711,0,44260.88,100.3781
2020-03-09 10:19:19.672 +0100,1583745558.999743,52.56387406433634,13.4104013145498,47.16694,2.204357,219.0827161785362,1.276399502076674,24.65566435954675,-9999,40816.665545375,0.1234893798828125,-0.4493865966796875,-0.9082794189453125,40816.660521375,-0.4624606788474921,0.07713957169902105,0.39994793210027,0.2107003629207611,0.2048624902963638,-0.6737235188484192,0.03845451772212982,-0.03062692284584045,-0.0346914529800415,XArbitraryZVertical,0.2018740853333269,-0.00870443382067315,-0.2169852966415565,0.9550332206417037,0.07098136842250824,-0.3893703818321228,-0.9183421730995178,40775.39722125,unknown,2,2020-03-09 10:18:38.401 +0100,605438359.1326711,0,44260.88,100.3781
2020-03-09 10:19:19.686 +0100,1583745558.999743,52.56387406433634,13.4104013145498,47.16694,2.204357,219.0827161785362,1.276399502076674,24.65566435954675,-9999,40816.680618375,0.1573333740234375,-0.498931884765625,-0.832550048828125,40816.675594375,-0.4730714039873028,0.08402152837764415,0.4011637583839406,0.01937593892216682,0.1679633259773254,-0.6034450531005859,0.04622936248779297,-0.05889567732810974,0.009079873561859131,XArbitraryZVertical,0.2031654207540151,-0.006637459569780601,-0.2213006016239164,0.9537849053963601,0.07725983858108521,-0.3904899656772614,-0.9173595309257507,40775.39722125,unknown,2,2020-03-09 10:18:38.401 +0100,605438359.1326711,0,44260.88,100.3781
2020-03-09 10:19:19.701 +0100,1583745558.999743,52.56387406433634,13.4104013145498,47.16694,2.204357,219.0827161785362,1.276399502076674,24.65566435954675,-9999,40816.695691375,0.180419921875,-0.4364471435546875,-0.8503875732421875,40816.69066737501,-0.4822113844589176,0.09039158619999466,0.3986056057827486,-0.2476608157157898,0.2034606039524078,-0.5464419722557068,0.08526507019996643,-0.09942945837974548,0.09934365749359131,XArbitraryZVertical,0.2026373123598902,-0.00422107048677247,-0.2251245357616372,0.9530157710238555,0.08319176733493805,-0.3881336450576782,-0.9178406000137329,40775.39722125,unknown,2,2020-03-09 10:18:38.401 +0100,605438359.1326711,0,44260.88,100.3781
2020-03-09 10:19:19.733 +0100,1583745558.999743,52.56387406433634,13.4104013145498,47.16694,2.204357,219.0827161785362,1.276399502076674,24.65566435954675,-9999,40816.71076437501,0.161651611328125,-0.343353271484375,-0.9485321044921875,40816.705740375,-0.4903405375531711,0.09667826008325729,0.3942778386759552,-0.1612957119941711,0.2060195803642273,-0.4958050847053528,0.09129815548658371,-0.05230468511581421,0.06857502460479736,XArbitraryZVertical,0.2012866033909739,-0.001517579328185085,-0.2285609791758867,0.9524921450532935,0.08912156522274017,-0.3841415345668793,-0.9189627766609192,40775.39722125,unknown,2,2020-03-09 10:18:38.401 +0100,605438359.1326711,0,44260.88,100.3781
2020-03-09 10:19:19.736 +0100,1583745558.999743,52.56387406433634,13.4104013145498,47.16694,2.204357,219.0827161785362,1.276399502076674,24.65566435954675,-9999,40816.725837375,0.1340789794921875,-0.2793731689453125,-0.997528076171875,40816.720813375,-0.4980330210792027,0.1023729897286589,0.3945322687626181,0.3201964795589447,0.1554869413375854,-0.4504058063030243,0.05513151735067368,0.07070252299308777,-0.05551880598068237,XArbitraryZVertical,0.2020601206308935,0.0003858678575530971,-0.2316364251527084,0.9515860757373164,0.09434334188699722,-0.3843764364719391,-0.9183431267738342,40775.39722125,unknown,2,2020-03-09 10:18:38.401 +0100,605438359.1326711,0,44260.88,100.3781
2020-03-09 10:19:19.747 +0100,1583745558.999743,52.56387406433634,13.4104013145498,47.16694,2.204357,219.0827161785362,1.276399502076674,24.65566435954675,-9999,40816.740910375,0.133544921875,-0.29571533203125,-0.971099853515625,40816.735885375,-0.5064925113251133,0.107663221747346,0.4026424576515594,0.8129075765609741,0.1162346228957176,-0.4678307175636292,0.03521671891212463,0.1124787628650665,-0.08282661437988281,XArbitraryZVertical,0.2065142403673528,0.001009380891273677,-0.2347161182450538,0.9498731898747016,0.09886200726032257,-0.3918508589267731,-0.9147017002105713,40775.39722125,unknown,2,2020-03-09 10:18:38.401 +0100,605438359.1326711,0,44260.88,100.3781
2020-03-09 10:19:19.762 +0100,1583745558.999743,52.56387406433634,13.4104013145498,47.16694,2.204357,219.0827161785362,1.276399502076674,24.65566435954675,-9999,40816.75598337501,0.116455078125,-0.38336181640625,-0.949615478515625,40816.750958375,-0.5156372958889925,0.1129738191823224,0.414885747783482,0.8388779163360596,0.1197217628359795,-0.4598247110843658,0.02828463166952133,0.08053082227706909,-0.05670571327209473,XArbitraryZVertical,0.2129197043332265,0.000990682755307729,-0.2378641140116181,0.9476733745752062,0.1031695976853371,-0.4030853807926178,-0.9093284606933594,40775.39722125,unknown,2,2020-03-09 10:18:38.401 +0100,605438359.1326711,0,44260.88,100.3781
